ets Jul 29 2019 12:21:46

rst:0x1 (POWERON_RESET),boot:0x13 (SPI_FAST_FLASH_BOOT)
configsip: 271414342, SPIWP:0xee
clk_drv:0x00,q_drv:0x00,d_drv:0x00,cs0_drv:0x00,hd_drv:0x00,wp_drv:0x00
mode:DIO, clock div:1
load:0x3fff0030,len:1184
load:0x40078000,len:13260
load:0x40080400,len:3028
entry 0x400805e4
# REC controls: r=toggle recording, 0-9=set label, c=recalibrate
# NOTE: CSV rows only print when REC=ON
ts,label,pinkeyF,indexF,middleF,ringF,pinkeyBent,indexBent,middleBent,ringBent,ax,ay,az,gx,gy,gz,gmag,amag,gmagDelta,action
# CAL: starting (MID 5s, HIGH 5s, LOW 5s)
# ₉₉₈₉  BLE advertising started: GLOVE-ESP32
# CAL: Hold MID for 5s, then HIGH 5s, then LOW 5s.
# CAL,MID
# CAL,MID
# CAL,MID
# CAL,MID
# CAL,MID
# CAL,MID
# CAL,MID
# CAL,MID
# CAL,MID
# CAL,MID
# CAL,MID
# CAL,MID
# CAL,MID
# CAL,MID
# CAL,MID
# CAL,MID
# CAL,MID
# CAL,MID
# CAL,MID
# CAL,MID
# CAL,MID
# CAL,MID
# CAL,MID
# CAL,MID
# CAL,MID
# CAL,MID
# CAL,MID
# CAL,MID
# CAL,MID
# CAL,MID
# CAL,MID
# CAL,MID
# CAL,MID
# CAL,MID
# CAL,MID
# CAL,MID
# CAL,MID
# CAL,MID
# CAL,MID
# CAL,MID
# CAL,MID
# CAL,MID
# CAL,MID
# CAL,MID
# CAL,MID
# CAL,MID
# CAL,MID
# CAL,MID
# CAL,MID
# CAL,MID
# CAL,MID
# CAL,MID
# CAL,MID
# CAL,MID
# CAL,MID
# CAL,MID
# CAL,MID
# CAL,MID
# CAL,MID
# CAL,MID
# CAL,MID
# CAL,MID
# CAL,MID
# CAL,MID
# CAL,MID
# CAL,MID
# CAL,MID
# CAL,MID
# CAL,MID
# CAL,MID
# CAL,MID
# CAL,MID
# CAL,MID
# CAL,MID
# CAL,MID
# CAL,MID
# CAL,MID
# CAL,MID
# CAL,MID
# CAL,MID
# CAL,MID
# CAL,MID
# CAL,MID
# CAL,MID
# CAL,MID
# CAL,MID
# CAL,MID
# CAL,MID
# CAL,MID
# CAL,MID
# CAL,MID
# CAL,MID
# CAL,MID
# CAL,MID
# CAL,MID
# CAL,HIGH
# CAL,HIGH
# CAL,HIGH
# CAL,HIGH
# CAL,HIGH
# CAL,HIGH
# CAL,HIGH
# CAL,HIGH
# CAL,HIGH
# CAL,HIGH
# CAL,HIGH
# CAL,HIGH
# CAL,HIGH
# CAL,HIGH
# CAL,HIGH
# CAL,HIGH
# CAL,HIGH
# CAL,HIGH
# CAL,HIGH
# CAL,HIGH
# CAL,HIGH
# CAL,HIGH
# CAL,HIGH
# CAL,HIGH
# CAL,HIGH
# CAL,HIGH
# CAL,HIGH
# CAL,HIGH
# CAL,HIGH
# CAL,HIGH
# CAL,HIGH
# CAL,HIGH
# CAL,HIGH
# CAL,HIGH
# CAL,HIGH
# CAL,HIGH
# CAL,HIGH
# CAL,HIGH
# CAL,HIGH
# CAL,HIGH
# CAL,HIGH
# CAL,HIGH
# CAL,HIGH
# CAL,HIGH
# CAL,HIGH
# CAL,HIGH
# CAL,HIGH
# CAL,HIGH
# CAL,HIGH
# CAL,HIGH
# CAL,HIGH
# CAL,HIGH
# CAL,HIGH
# CAL,HIGH
# CAL,HIGH
# CAL,HIGH
# CAL,HIGH
# CAL,HIGH
# CAL,HIGH
# CAL,HIGH
# CAL,HIGH
# CAL,HIGH
# CAL,HIGH
# CAL,HIGH
# CAL,HIGH
# CAL,HIGH
# CAL,HIGH
# CAL,HIGH
# CAL,HIGH
# CAL,HIGH
# CAL,HIGH
# CAL,HIGH
# CAL,HIGH
# CAL,HIGH
# CAL,HIGH
# CAL,HIGH
# CAL,HIGH
# CAL,HIGH
# CAL,HIGH
# CAL,HIGH
# CAL,HIGH
# CAL,HIGH
# CAL,HIGH
# CAL,HIGH
# CAL,HIGH
# CAL,HIGH
# CAL,HIGH
# CAL,HIGH
# CAL,HIGH
# CAL,HIGH
# CAL,HIGH
# CAL,HIGH
# CAL,HIGH
# CAL,HIGH
# CAL,LOW
# CAL,LOW
# CAL,LOW
# CAL,LOW
# CAL,LOW
# CAL,LOW
# CAL,LOW
# CAL,LOW
# CAL,LOW
# CAL,LOW
# CAL,LOW
# CAL,LOW
# CAL,LOW
# CAL,LOW
# CAL,LOW
# CAL,LOW
# CAL,LOW
# CAL,LOW
# CAL,LOW
# CAL,LOW
# CAL,LOW
# CAL,LOW
# CAL,LOW
# CAL,LOW
# CAL,LOW
# CAL,LOW
# CAL,LOW
# CAL,LOW
# CAL,LOW
# CAL,LOW
# CAL,LOW
# CAL,LOW
# CAL,LOW
# CAL,LOW
# CAL,LOW
# CAL,LOW
# CAL,LOW
# CAL,LOW
# CAL,LOW
# CAL,LOW
# CAL,LOW
# CAL,LOW
# CAL,LOW
# CAL,LOW
# CAL,LOW
# CAL,LOW
# CAL,LOW
# CAL,LOW
# CAL,LOW
# CAL,LOW
# CAL,LOW
# CAL,LOW
# CAL,LOW
# CAL,LOW
# CAL,LOW
# CAL,LOW
# CAL,LOW
# CAL,LOW
# CAL,LOW
# CAL,LOW
# CAL,LOW
# CAL,LOW
# CAL,LOW
# CAL,LOW
# CAL,LOW
# CAL,LOW
# CAL,LOW
# CAL,LOW
# CAL,LOW
# CAL,LOW
# CAL,LOW
# CAL,LOW
# CAL,LOW
# CAL,LOW
# CAL,LOW
# CAL,LOW
# CAL,LOW
# CAL,LOW
# CAL,LOW
# CAL,LOW
# CAL,LOW
# CAL,LOW
# CAL,LOW
# CAL,LOW
# CAL,LOW
# CAL,LOW
# CAL,LOW
# CAL,LOW
# CAL,LOW
# CAL,LOW
# CAL,LOW
# CAL,LOW
# CAL,LOW
# CAL,LOW
# CAL,LOW
# CAL DONE midAvg=-25.39 highAvg=-27.16 lowAvg=-26.60
# REC=ON
22049,0,25,78,-174,1480,0,0,0,1,5.06,-4.19,-9.24,-0.00,0.01,-0.01,0.02,11.34,-0.03,NONE
22254,0,24,77,-173,1481,0,0,0,1,4.95,-4.13,-9.15,-0.06,0.02,-0.02,0.07,11.20,0.05,NONE
22458,0,24,77,-173,1480,0,0,0,1,4.98,-4.08,-9.21,-0.00,-0.01,-0.01,0.01,11.24,-0.06,NONE
22662,0,18,78,-173,1482,0,0,0,1,5.08,-4.40,-9.21,-0.01,-0.02,0.01,0.02,11.40,0.01,NONE
22866,0,20,77,-173,1483,0,0,0,1,5.07,-4.17,-9.20,-0.02,-0.02,-0.00,0.03,11.30,0.01,NONE
23070,0,20,77,-173,1482,0,0,0,1,5.04,-4.15,-9.27,-0.02,-0.01,-0.03,0.04,11.34,0.01,NONE
23274,0,22,77,-172,1480,0,0,0,1,4.97,-4.14,-9.22,-0.03,-0.02,-0.02,0.04,11.27,-0.00,NONE
23478,0,22,75,-172,1481,0,0,0,1,4.96,-4.10,-9.27,-0.02,0.00,-0.03,0.04,11.28,-0.00,NONE
23682,0,17,73,-171,1480,0,0,0,1,5.07,-4.13,-9.23,-0.04,0.00,-0.03,0.05,11.31,0.01,NONE
23886,0,21,71,-170,1481,0,0,0,1,4.74,-4.19,-9.13,-0.00,0.00,0.00,0.00,11.10,-0.04,NONE
24090,0,23,61,-168,1488,0,0,0,1,3.89,-4.82,-9.41,0.40,-0.48,0.23,0.67,11.26,0.66,NONE
24294,0,25,55,-166,1494,0,0,0,1,3.23,-5.11,-8.62,-0.02,0.01,0.14,0.14,10.53,-0.53,NONE
24498,0,26,50,-161,1502,0,0,0,1,4.54,-5.32,-8.62,-0.04,0.10,-0.07,0.13,11.10,-0.01,NONE
24702,0,27,54,-167,1495,0,0,0,1,3.92,-5.26,-8.86,0.13,-0.28,0.35,0.46,11.02,0.34,NONE
24906,0,28,69,-187,1494,0,0,0,1,3.44,-5.53,-8.99,0.10,-0.18,0.13,0.24,11.10,-0.22,NONE
25110,0,35,65,-211,1486,0,0,0,1,3.25,-5.99,-8.97,0.02,-0.11,0.06,0.13,11.27,-0.12,NONE
25314,0,39,78,-226,1491,0,0,0,1,3.54,-5.55,-9.04,-0.14,0.09,-0.07,0.18,11.18,0.05,NONE
25518,0,43,87,-238,1486,0,0,0,1,3.31,-5.54,-9.07,-0.01,0.01,-0.06,0.06,11.13,-0.11,NONE
25722,0,45,94,-244,1485,0,0,0,1,3.25,-5.57,-9.12,-0.01,-0.04,0.01,0.04,11.17,-0.02,NONE
25926,0,44,81,-258,1392,0,0,0,1,3.22,-6.15,-8.86,0.33,-0.17,0.30,0.47,11.26,0.43,NONE
26130,0,37,73,-293,1231,0,0,0,1,2.30,-6.57,-8.47,0.12,-0.03,0.02,0.13,10.96,-0.34,NONE
26334,0,33,72,-327,1101,0,0,0,1,2.38,-6.44,-8.39,-0.07,0.05,-0.18,0.20,10.84,0.07,NONE
26538,0,29,71,-350,1010,0,0,0,1,2.36,-6.72,-8.37,0.02,-0.02,-0.00,0.03,10.99,-0.17,NONE
26742,0,27,74,-367,942,0,0,0,1,2.85,-6.69,-8.84,-0.02,0.01,-0.00,0.02,11.45,-0.01,NONE
26946,0,22,75,-381,893,0,0,0,1,2.64,-6.59,-8.47,-0.06,0.01,-0.09,0.11,11.05,0.09,NONE
27150,0,18,76,-392,859,0,0,0,1,2.50,-6.53,-8.33,-0.01,0.01,-0.01,0.02,10.88,-0.09,NONE
27354,0,18,74,-390,909,0,0,0,1,2.49,-6.86,-8.55,-0.25,0.03,0.07,0.26,11.24,0.24,NONE
27558,0,18,78,-360,1052,0,0,0,1,2.87,-6.02,-8.54,-0.07,0.14,-0.25,0.29,10.83,0.03,NONE
27762,0,14,69,-313,1188,0,0,0,1,2.86,-6.32,-8.47,0.01,0.07,-0.08,0.11,10.95,-0.19,NONE
27966,0,11,60,-276,1288,0,0,0,1,3.18,-6.15,-8.69,-0.04,0.10,-0.07,0.13,11.11,0.02,NONE
28170,0,7,49,-239,1360,0,0,0,1,2.94,-6.16,-8.56,0.02,-0.01,0.01,0.03,10.95,-0.10,NONE
28374,0,3,37,-215,1414,0,0,0,1,3.20,-6.23,-8.88,-0.10,0.07,-0.05,0.13,11.31,0.10,NONE
28578,0,0,32,-192,1454,0,0,0,1,2.94,-6.00,-8.66,-0.09,-0.04,-0.03,0.10,10.93,-0.03,NONE
28782,0,0,28,-176,1483,0,0,0,1,3.25,-6.06,-8.88,-0.02,-0.02,0.01,0.02,11.24,-0.08,NONE
28986,0,-2,25,-168,1501,0,0,0,1,3.25,-6.03,-8.83,-0.02,0.03,-0.05,0.06,11.17,0.04,NONE
29190,0,-4,23,-162,1505,0,0,0,1,3.21,-6.04,-8.91,-0.03,0.04,-0.05,0.07,11.23,0.01,NONE
29394,0,-3,22,-160,1518,0,0,0,1,3.15,-5.93,-8.87,-0.03,-0.02,-0.01,0.04,11.12,-0.03,NONE
29598,0,-4,20,-159,1528,0,0,0,1,3.15,-5.93,-8.77,-0.01,-0.04,-0.02,0.04,11.04,0.00,NONE
29802,0,-4,18,-158,1534,0,0,0,1,3.26,-5.92,-8.87,-0.01,0.03,-0.03,0.04,11.16,0.00,NONE
30006,0,-3,17,-158,1537,0,0,0,1,3.12,-5.88,-8.69,-0.04,0.06,-0.07,0.10,10.95,0.06,NONE
30210,0,-7,17,-150,1546,0,0,0,1,2.87,-5.94,-8.25,-0.04,0.20,-0.28,0.34,10.56,0.24,NONE
30414,0,-17,13,-106,1557,0,0,0,1,3.85,-5.31,-8.99,-0.24,0.14,-0.25,0.37,11.13,0.03,NONE
30618,0,-28,4,-68,1568,0,0,0,1,3.55,-5.26,-9.24,-0.04,0.11,-0.01,0.12,11.20,-0.25,NONE
30822,0,-36,-7,-37,1578,0,0,0,1,4.06,-5.16,-9.27,-0.27,0.11,-0.18,0.34,11.36,0.22,NONE
31026,0,-43,-20,-10,1585,0,0,0,1,4.34,-5.04,-9.18,-0.03,0.00,-0.03,0.05,11.34,-0.29,NONE
31230,0,-49,-30,10,1590,0,0,0,1,4.17,-5.05,-9.24,-0.01,-0.05,0.03,0.06,11.33,0.02,NONE
31434,0,-54,-38,27,1596,0,0,0,1,4.09,-4.97,-9.14,-0.10,0.05,-0.07,0.13,11.18,0.06,NONE
31638,0,-59,-44,40,1599,0,0,0,1,4.07,-5.05,-8.99,-0.02,0.00,-0.04,0.04,11.08,-0.09,NONE
31842,0,-60,-47,47,1602,0,0,0,1,4.28,-5.19,-9.12,0.05,0.04,0.05,0.08,11.33,0.04,NONE
32046,0,-61,-47,51,1604,0,0,0,1,4.30,-5.09,-8.91,-0.02,0.06,0.00,0.06,11.12,-0.02,NONE
32250,0,-53,-46,45,1604,0,0,0,1,4.10,-5.26,-8.81,-0.00,-0.00,0.02,0.02,11.05,-0.04,NONE
32454,0,-47,-45,38,1604,0,0,0,1,4.00,-5.24,-9.01,0.05,0.05,0.06,0.09,11.17,0.08,NONE
32658,0,-42,-45,32,1586,0,0,0,1,4.12,-5.78,-8.91,0.19,-0.14,0.21,0.32,11.39,0.23,NONE
32862,0,-43,-25,-26,1459,0,0,0,1,3.02,-6.31,-8.39,0.54,-0.47,0.51,0.88,10.92,0.56,NONE
33066,0,-41,-10,-111,1265,0,0,0,1,2.30,-6.66,-7.98,0.01,0.01,-0.12,0.12,10.65,-0.76,NONE
33270,0,-42,5,-174,1118,0,0,0,1,2.52,-6.88,-8.18,0.00,0.03,-0.09,0.09,10.98,-0.03,NONE
33474,0,-42,21,-224,1007,0,0,0,1,2.62,-6.94,-8.19,-0.03,0.02,-0.05,0.06,11.05,-0.03,NONE
33678,0,-42,32,-259,926,0,0,0,1,2.60,-6.91,-8.04,-0.02,0.02,-0.07,0.08,10.91,0.02,NONE
33882,0,-42,43,-284,867,0,0,0,1,2.94,-6.78,-8.30,-0.02,0.01,-0.01,0.02,11.11,-0.05,NONE
34086,0,-38,50,-301,826,0,0,0,1,2.95,-6.81,-8.32,-0.01,-0.01,-0.05,0.05,11.15,0.03,NONE
34290,0,-40,54,-314,796,0,0,0,1,2.89,-6.70,-8.14,-0.02,0.03,-0.06,0.07,10.94,0.02,NONE
34494,0,-41,58,-322,775,0,0,0,1,2.96,-6.74,-8.21,0.02,0.04,-0.03,0.05,11.03,-0.02,NONE
34698,0,-41,61,-328,761,0,0,0,1,2.86,-6.77,-8.34,-0.04,0.02,-0.05,0.06,11.12,0.01,NONE
34902,0,-42,63,-332,751,0,0,0,1,2.68,-6.73,-8.13,-0.02,-0.03,-0.02,0.04,10.89,-0.02,NONE
35106,0,-40,65,-337,742,0,0,0,1,3.05,-6.80,-8.39,-0.04,-0.02,-0.02,0.04,11.22,0.00,NONE
35310,0,-40,67,-339,737,0,0,0,1,3.04,-6.61,-8.24,-0.05,0.03,-0.07,0.09,10.99,0.05,NONE
35514,0,-38,69,-342,734,0,0,0,1,2.95,-6.77,-8.32,-0.01,0.01,-0.01,0.01,11.13,-0.08,NONE
35718,0,-35,60,-342,831,0,0,0,1,2.77,-6.73,-8.26,-0.40,0.03,-0.15,0.43,11.00,0.42,NONE
35922,0,-29,52,-307,1017,0,0,0,1,3.29,-6.05,-8.74,-0.10,0.19,-0.24,0.32,11.13,-0.11,NONE
36126,0,-21,48,-284,1156,0,0,0,1,3.16,-6.06,-8.59,-0.01,0.06,-0.08,0.10,10.97,-0.22,NONE
36330,0,-15,42,-264,1261,0,0,0,1,3.33,-6.00,-8.62,-0.10,0.06,-0.13,0.17,11.02,0.08,NONE
36534,0,-10,48,-254,1334,0,0,0,1,3.88,-6.05,-9.01,-0.06,-0.03,0.02,0.07,11.53,-0.10,NONE
36738,0,-6,41,-243,1392,0,0,0,1,3.38,-6.03,-8.92,-0.02,-0.00,-0.03,0.03,11.29,-0.04,NONE
36942,0,0,36,-237,1432,0,0,0,1,3.27,-5.84,-8.77,-0.01,0.03,-0.07,0.07,11.04,0.04,NONE
37146,0,0,40,-231,1464,0,0,0,1,3.32,-5.80,-8.68,-0.03,0.10,-0.13,0.16,10.95,0.09,NONE
37350,0,7,40,-238,1484,0,0,0,1,4.33,-4.47,-8.75,-1.65,0.56,-1.66,2.41,10.74,2.24,NONE
37554,0,12,47,-242,1486,0,0,0,1,5.15,-3.46,-9.39,-0.06,-0.02,-0.02,0.07,11.25,-2.34,NONE
37758,0,19,52,-244,1487,0,0,0,1,5.44,-3.30,-9.30,-0.09,-0.01,-0.03,0.10,11.26,0.03,NONE
37962,0,21,57,-244,1489,0,0,0,1,5.48,-3.44,-9.29,-0.04,-0.01,-0.02,0.05,11.32,-0.05,NONE
38166,0,23,61,-246,1486,0,0,0,1,5.32,-3.33,-9.41,-0.01,0.02,-0.02,0.03,11.31,-0.01,NONE
38370,0,24,62,-245,1488,0,0,0,1,5.24,-3.26,-9.45,-0.01,-0.00,-0.02,0.03,11.29,-0.01,NONE
38574,0,24,62,-245,1490,0,0,0,1,5.29,-3.32,-9.44,-0.01,0.01,-0.02,0.03,11.32,-0.00,NONE
38778,0,24,63,-246,1492,0,0,0,1,5.33,-3.27,-9.42,-0.01,0.01,-0.03,0.03,11.30,0.00,NONE
38982,0,24,64,-245,1496,0,0,0,1,5.29,-3.29,-9.44,-0.01,0.01,-0.02,0.03,11.31,-0.00,NONE
39186,0,24,64,-244,1495,0,0,0,1,5.27,-3.31,-9.43,0.01,0.00,-0.04,0.04,11.30,0.01,NONE
39390,0,25,65,-245,1494,0,0,0,1,5.45,-3.57,-9.31,0.02,-0.01,-0.03,0.04,11.37,0.00,NONE
39594,0,26,65,-250,1492,0,0,0,1,5.30,-3.39,-9.36,-0.05,0.01,0.00,0.05,11.28,0.01,NONE
39798,0,28,66,-254,1492,0,0,0,1,5.71,-3.64,-8.97,0.06,0.09,-0.01,0.10,11.24,0.05,NONE
40002,0,29,66,-258,1490,0,0,0,1,5.49,-3.64,-9.06,-0.01,-0.00,-0.02,0.02,11.21,-0.08,NONE
40206,0,30,67,-261,1488,0,0,0,1,5.62,-3.65,-9.05,-0.00,0.01,-0.03,0.04,11.26,0.01,NONE
40410,0,30,67,-263,1486,0,0,0,1,5.67,-3.75,-9.01,-0.03,0.00,-0.02,0.04,11.29,0.00,NONE
40614,0,30,69,-265,1483,0,0,0,1,5.75,-3.68,-8.92,-0.01,0.01,-0.02,0.03,11.23,-0.01,NONE
40818,0,31,71,-265,1483,0,0,0,1,5.55,-3.55,-9.13,0.01,0.00,-0.02,0.02,11.26,-0.01,NONE
41022,0,31,71,-264,1482,0,0,0,1,5.71,-3.85,-8.90,-0.02,0.00,0.01,0.02,11.26,0.00,NONE
41226,0,31,73,-267,1480,0,0,0,1,6.13,-3.60,-8.73,0.01,0.03,-0.05,0.06,11.26,0.04,NONE
41430,0,30,73,-263,1481,0,0,0,1,5.78,-3.71,-8.85,-0.06,-0.04,-0.03,0.08,11.20,0.02,NONE
41634,0,31,73,-260,1480,0,0,0,1,5.49,-3.56,-9.12,-0.03,-0.01,-0.02,0.04,11.23,-0.04,NONE
41838,0,31,74,-256,1480,0,0,0,1,5.61,-3.67,-8.99,-0.01,-0.01,-0.04,0.04,11.21,0.00,NONE
42042,0,30,73,-252,1488,0,0,0,1,5.56,-3.68,-9.09,-0.01,-0.00,-0.02,0.02,11.27,-0.02,NONE
42246,0,32,73,-251,1485,0,0,0,1,5.44,-3.55,-9.17,-0.02,-0.02,-0.02,0.03,11.24,0.01,NONE
42450,0,31,75,-224,1483,0,0,0,1,5.51,-3.70,-9.15,-0.03,-0.01,-0.02,0.04,11.30,0.01,NONE
42654,0,24,72,-228,1482,0,0,0,1,5.48,-3.71,-9.11,-0.01,0.01,-0.03,0.03,11.26,-0.01,NONE
42858,0,26,71,-232,1482,0,0,0,1,5.46,-3.69,-9.17,-0.01,0.01,-0.03,0.03,11.29,-0.00,NONE
43062,0,27,71,-234,1482,0,0,0,1,5.37,-3.60,-9.19,0.01,0.03,-0.03,0.04,11.24,0.01,NONE
43266,0,27,70,-235,1482,0,0,0,1,5.32,-3.60,-9.25,0.08,0.06,-0.06,0.11,11.26,0.07,NONE
43470,0,28,70,-237,1482,0,0,0,1,5.83,-3.64,-8.84,0.07,0.15,-0.08,0.18,11.20,0.07,NONE
43674,0,29,71,-239,1480,0,0,0,1,5.39,-3.79,-9.12,0.01,-0.03,-0.04,0.04,11.25,-0.14,NONE
43878,0,30,71,-239,1480,0,0,0,1,5.53,-3.74,-9.04,-0.03,0.01,-0.04,0.05,11.24,0.01,NONE
44082,0,29,72,-241,1479,0,0,0,1,5.74,-3.91,-8.80,-0.00,0.00,-0.04,0.04,11.21,-0.01,NONE
44286,0,27,70,-239,1480,0,0,0,1,5.66,-3.88,-8.87,-0.03,-0.02,-0.02,0.04,11.21,-0.01,NONE
44490,0,27,72,-240,1479,0,0,0,1,5.58,-3.84,-8.89,0.01,0.01,-0.05,0.05,11.17,0.02,NONE
44694,0,27,70,-239,1478,0,0,0,1,5.68,-3.80,-8.89,-0.06,-0.02,0.02,0.07,11.22,0.02,NONE
44898,0,28,69,-238,1479,0,0,0,1,5.58,-3.73,-9.03,-0.08,-0.07,0.01,0.11,11.25,0.04,NONE
45102,0,28,69,-237,1479,0,0,0,1,5.63,-3.72,-8.91,-0.03,0.01,-0.03,0.04,11.18,-0.07,NONE
45306,0,29,70,-238,1477,0,0,0,1,5.57,-3.81,-9.04,-0.00,0.02,-0.02,0.03,11.28,-0.01,NONE
45510,0,32,70,-238,1477,0,0,0,1,5.62,-3.74,-8.99,-0.02,0.02,-0.04,0.05,11.25,0.02,NONE
45714,0,32,72,-237,1478,0,0,0,1,5.52,-3.76,-9.04,-0.04,-0.02,-0.01,0.05,11.23,0.00,NONE
45918,0,31,70,-236,1478,0,0,0,1,5.56,-3.74,-9.01,-0.05,-0.03,-0.02,0.06,11.23,0.01,NONE
46122,0,32,71,-238,1477,0,0,0,1,5.67,-3.75,-8.96,0.01,0.03,-0.05,0.06,11.25,-0.00,NONE
46326,0,31,70,-237,1477,0,0,0,1,5.58,-3.76,-9.02,-0.05,-0.01,-0.02,0.06,11.25,-0.00,NONE
46530,0,32,73,-239,1474,0,0,0,1,5.69,-3.81,-8.92,-0.01,-0.00,-0.03,0.03,11.25,-0.02,NONE
46734,0,31,72,-238,1476,0,0,0,1,5.69,-3.68,-8.97,-0.07,-0.03,-0.02,0.07,11.25,0.04,NONE
46938,0,31,71,-238,1476,0,0,0,1,5.63,-3.94,-9.03,-0.01,0.05,-0.03,0.06,11.35,-0.02,NONE
47142,0,30,72,-238,1476,0,0,0,1,5.79,-3.53,-8.98,-0.13,0.04,-0.00,0.13,11.25,0.08,NONE
47346,0,28,73,-238,1474,0,0,0,1,5.71,-3.60,-8.98,-0.02,0.01,-0.03,0.04,11.24,-0.09,NONE
47550,0,30,71,-239,1475,0,0,0,1,5.39,-3.51,-8.97,0.01,-0.05,-0.02,0.06,11.04,0.02,NONE
47754,0,30,70,-239,1475,0,0,0,1,5.94,-3.80,-8.85,0.02,-0.01,-0.03,0.04,11.32,-0.02,NONE
47958,0,30,72,-239,1475,0,0,0,1,5.72,-3.74,-8.95,-0.00,0.01,-0.02,0.03,11.26,-0.01,NONE
48162,0,29,73,-238,1475,0,0,0,1,5.77,-3.70,-9.01,-0.01,-0.01,-0.03,0.03,11.32,0.01,NONE
48366,0,30,75,-240,1473,0,0,0,1,5.66,-3.70,-8.85,-0.05,-0.02,-0.02,0.06,11.14,0.03,NONE
48570,0,29,73,-239,1473,0,0,0,1,5.82,-3.63,-8.89,-0.02,0.08,-0.00,0.08,11.22,0.02,NONE
48774,0,29,71,-238,1472,0,0,0,1,5.71,-3.65,-8.91,-0.01,-0.02,-0.05,0.05,11.20,-0.03,NONE
48978,0,29,71,-237,1473,0,0,0,1,5.71,-3.52,-8.98,-0.01,-0.03,-0.06,0.07,11.21,0.01,NONE
49182,0,26,69,-237,1473,0,0,0,1,5.67,-3.55,-8.95,-0.04,-0.01,-0.03,0.05,11.17,-0.02,NONE
49386,0,27,69,-237,1474,0,0,0,1,5.55,-3.58,-9.10,-0.02,-0.02,-0.04,0.04,11.25,-0.01,NONE
49590,0,27,68,-238,1474,0,0,0,1,5.82,-3.60,-9.01,-0.03,0.04,-0.02,0.06,11.31,0.01,NONE
49794,0,28,68,-238,1475,0,0,0,1,5.84,-3.56,-8.78,0.07,0.18,-0.03,0.20,11.13,0.14,NONE
49998,0,29,70,-237,1475,0,0,0,1,5.99,-3.61,-8.79,-0.06,-0.02,-0.00,0.06,11.24,-0.14,NONE
50202,0,29,70,-236,1477,0,0,0,1,5.71,-3.73,-9.03,-0.04,-0.04,0.02,0.06,11.31,0.00,NONE
50406,0,30,71,-236,1479,0,0,0,1,5.83,-3.61,-8.82,-0.01,-0.04,0.00,0.04,11.17,-0.03,NONE
50610,0,27,72,-236,1480,0,0,0,1,5.72,-3.61,-8.98,-0.02,0.02,-0.02,0.03,11.24,-0.00,NONE
50814,0,26,70,-234,1481,0,0,0,1,5.70,-3.67,-8.95,-0.01,0.01,-0.01,0.02,11.23,-0.01,NONE
51018,0,26,69,-233,1482,0,0,0,1,5.70,-3.61,-9.05,-0.01,0.01,-0.01,0.02,11.28,-0.00,NONE
51222,0,27,68,-232,1483,0,0,0,1,5.62,-3.59,-9.05,-0.01,0.00,-0.03,0.03,11.24,0.01,NONE
51426,0,28,70,-233,1481,0,0,0,1,5.58,-3.62,-9.04,-0.02,-0.02,-0.03,0.04,11.22,0.01,NONE
51630,0,27,69,-232,1481,0,0,0,1,5.63,-3.56,-9.05,-0.05,-0.03,-0.02,0.06,11.24,0.02,NONE
51834,0,29,69,-232,1479,0,0,0,1,5.67,-3.61,-9.07,0.00,0.04,-0.03,0.05,11.29,-0.01,NONE
52038,0,29,69,-230,1480,0,0,0,1,5.69,-3.60,-9.04,-0.00,0.02,-0.03,0.03,11.27,-0.02,NONE
52242,0,28,68,-223,1476,0,0,0,1,5.70,-3.59,-9.09,0.01,0.02,-0.04,0.05,11.31,0.01,NONE
52446,0,28,67,-223,1479,0,0,0,1,5.44,-3.43,-9.21,-0.02,-0.00,-0.03,0.03,11.24,-0.02,NONE
52650,0,28,67,-223,1481,0,0,0,1,5.59,-3.64,-9.10,-0.01,-0.01,-0.02,0.03,11.28,-0.00,NONE
52854,0,27,66,-206,1481,0,0,0,1,5.49,-3.60,-9.23,-0.01,-0.00,-0.03,0.03,11.32,0.00,NONE
53058,0,26,66,-211,1481,0,0,0,1,5.48,-3.43,-9.12,-0.01,0.03,-0.02,0.03,11.18,0.00,NONE
53262,0,27,67,-214,1481,0,0,0,1,5.71,-3.69,-9.04,0.03,0.04,-0.03,0.06,11.31,0.03,NONE
53466,0,27,67,-217,1480,0,0,0,1,5.49,-3.47,-9.09,-0.11,-0.07,0.02,0.13,11.18,0.07,NONE
53670,0,28,67,-217,1481,0,0,0,1,5.66,-3.65,-9.13,-0.01,0.00,-0.04,0.04,11.35,-0.09,NONE
53874,0,28,66,-221,1486,0,0,0,1,5.47,-3.53,-9.19,-0.02,-0.02,-0.02,0.04,11.26,-0.00,NONE
54078,0,27,66,-220,1486,0,0,0,1,5.62,-3.64,-9.09,-0.00,0.01,-0.03,0.03,11.29,-0.01,NONE
54282,0,27,66,-220,1486,0,0,0,1,5.47,-3.59,-9.14,0.04,0.03,-0.06,0.08,11.24,0.05,NONE
54486,0,27,66,-220,1486,0,0,0,1,5.56,-3.64,-9.08,-0.03,-0.06,-0.03,0.07,11.25,-0.00,NONE
54690,0,28,66,-221,1485,0,0,0,1,5.68,-3.51,-9.00,-0.03,-0.03,-0.04,0.06,11.20,-0.01,NONE
54894,0,27,66,-220,1485,0,0,0,1,5.50,-3.51,-9.17,-0.05,-0.01,-0.01,0.05,11.25,-0.01,NONE
55098,0,26,66,-221,1479,0,0,0,1,5.60,-3.62,-9.10,-0.00,0.04,-0.02,0.04,11.28,-0.01,NONE
55302,0,26,68,-222,1478,0,0,0,1,5.53,-3.52,-9.10,-0.02,0.03,-0.00,0.03,11.22,-0.01,NONE
55506,0,26,68,-221,1480,0,0,0,1,5.64,-3.65,-9.05,-0.01,0.01,-0.02,0.02,11.27,-0.01,NONE
55710,0,28,67,-219,1482,0,0,0,1,5.47,-3.57,-9.18,-0.04,-0.02,-0.01,0.05,11.27,0.03,NONE
55914,0,28,67,-218,1484,0,0,0,1,5.58,-3.62,-9.09,-0.00,0.02,-0.03,0.04,11.26,-0.01,NONE
56118,0,28,66,-217,1484,0,0,0,1,5.58,-3.63,-9.10,-0.05,-0.02,-0.01,0.05,11.27,0.02,NONE
56322,0,29,68,-217,1484,0,0,0,1,5.46,-3.54,-9.20,-0.01,-0.01,-0.02,0.03,11.27,-0.02,NONE
56526,0,28,68,-217,1484,0,0,0,1,5.66,-3.67,-9.05,0.00,0.02,-0.03,0.04,11.29,0.01,NONE
56730,0,28,67,-216,1486,0,0,0,1,5.55,-3.63,-9.08,0.02,0.03,-0.03,0.05,11.24,0.01,NONE
56934,0,28,69,-217,1485,0,0,0,1,5.52,-3.55,-9.11,-0.02,-0.02,-0.02,0.04,11.23,-0.01,NONE
57138,0,28,68,-216,1486,0,0,0,1,5.46,-3.54,-9.20,-0.01,-0.02,-0.02,0.03,11.27,-0.00,NONE
57342,0,27,67,-215,1486,0,0,0,1,5.34,-3.54,-9.26,-0.02,0.01,-0.02,0.03,11.26,-0.00,NONE
57546,0,26,67,-214,1486,0,0,0,1,5.60,-3.61,-9.14,-0.01,0.01,-0.03,0.03,11.31,0.00,NONE
57750,0,25,67,-213,1485,0,0,0,1,5.48,-3.55,-9.17,0.00,0.04,-0.02,0.04,11.26,0.01,NONE
57954,0,26,69,-215,1484,0,0,0,1,5.45,-3.52,-9.14,-0.09,-0.11,-0.00,0.15,11.21,0.10,NONE
58158,0,25,68,-213,1486,0,0,0,1,5.33,-3.42,-9.17,-0.03,-0.01,-0.01,0.04,11.14,-0.11,NONE
58362,0,25,67,-213,1487,0,0,0,1,5.32,-3.37,-9.32,-0.04,-0.05,-0.01,0.06,11.24,0.03,NONE
58566,0,19,67,-212,1488,0,0,0,1,5.47,-3.64,-9.19,-0.02,-0.00,-0.02,0.02,11.29,-0.04,NONE
58770,0,21,67,-212,1488,0,0,0,1,5.30,-3.60,-9.30,-0.02,0.03,-0.01,0.04,11.30,0.01,NONE
58974,0,21,67,-214,1488,0,0,0,1,5.37,-3.52,-9.06,0.02,0.01,-0.01,0.02,11.11,-0.01,NONE
59178,0,21,67,-215,1487,0,0,0,1,5.29,-3.42,-9.23,-0.04,-0.01,-0.01,0.04,11.18,0.02,NONE
59382,0,22,67,-215,1487,0,0,0,1,5.67,-3.67,-9.08,-0.08,-0.06,-0.00,0.10,11.31,0.06,NONE
59586,0,23,67,-215,1487,0,0,0,1,5.68,-3.71,-9.05,0.01,0.04,-0.01,0.04,11.32,-0.06,NONE
59790,0,25,68,-217,1486,0,0,0,1,5.55,-3.56,-9.12,-0.02,-0.00,-0.02,0.03,11.26,-0.01,NONE
59994,0,25,68,-217,1485,0,0,0,1,5.47,-3.63,-9.17,-0.00,0.02,-0.04,0.04,11.27,0.01,NONE
60198,0,26,68,-218,1485,0,0,0,1,5.22,-3.42,-9.23,-0.01,0.02,-0.03,0.03,11.14,-0.01,NONE
60402,0,24,69,-219,1485,0,0,0,1,5.43,-3.64,-9.21,-0.04,-0.03,-0.02,0.06,11.30,0.02,NONE
60606,0,26,71,-221,1483,0,0,0,1,5.58,-3.56,-9.05,-0.03,-0.01,-0.01,0.04,11.21,-0.02,NONE
60810,0,25,70,-221,1482,0,0,0,1,5.43,-3.60,-9.17,-0.04,-0.03,-0.03,0.06,11.25,0.02,NONE
61014,0,25,69,-221,1482,0,0,0,1,5.52,-3.61,-9.11,-0.03,-0.00,-0.01,0.03,11.25,-0.03,NONE
61218,0,25,69,-222,1481,0,0,0,1,5.51,-3.42,-9.24,-0.03,-0.03,-0.03,0.05,11.28,0.02,NONE
61422,0,26,69,-223,1480,0,0,0,1,5.19,-3.42,-9.32,-0.12,-0.07,-0.02,0.14,11.20,0.09,NONE
61626,0,25,70,-226,1479,0,0,0,1,5.54,-3.40,-9.35,0.01,0.04,-0.04,0.06,11.39,-0.08,NONE
61830,0,26,70,-227,1478,0,0,0,1,5.26,-3.31,-9.37,0.02,0.01,-0.04,0.05,11.24,-0.01,NONE
62034,0,24,69,-225,1479,0,0,0,1,5.37,-3.42,-9.31,-0.01,0.03,-0.02,0.04,11.28,-0.01,NONE
62238,0,24,69,-227,1478,0,0,0,1,5.28,-3.49,-9.32,-0.05,-0.01,-0.03,0.05,11.27,0.02,NONE
62442,0,25,72,-229,1476,0,0,0,1,5.44,-3.48,-9.25,-0.02,0.02,-0.02,0.03,11.28,-0.02,NONE
62646,0,24,71,-228,1476,0,0,0,1,5.33,-3.57,-9.31,-0.07,-0.07,-0.00,0.09,11.31,0.06,NONE
62850,0,24,71,-227,1477,0,0,0,1,5.54,-3.56,-9.20,-0.00,0.02,-0.02,0.03,11.31,-0.06,NONE
63054,0,24,71,-226,1477,0,0,0,1,5.46,-3.52,-9.25,0.01,0.02,-0.02,0.03,11.30,-0.00,NONE
63258,0,25,71,-225,1477,0,0,0,1,5.58,-3.54,-9.23,0.06,-0.01,0.02,0.06,11.35,0.03,NONE
63462,0,26,64,-224,1478,0,0,0,1,4.92,-3.56,-9.22,-0.03,-0.01,0.02,0.03,11.04,-0.03,NONE
63666,0,20,64,-182,1481,0,0,0,1,5.18,-4.05,-9.05,0.08,-0.07,0.15,0.19,11.18,0.15,NONE
63870,0,15,62,-140,1487,0,0,0,1,5.17,-4.17,-8.93,-0.02,0.02,-0.04,0.05,11.13,-0.14,NONE
64074,0,12,58,-106,1494,0,0,0,1,4.98,-4.13,-9.01,-0.04,0.01,-0.04,0.06,11.09,0.01,NONE
64278,0,15,52,-90,1498,0,0,0,1,5.24,-3.96,-9.50,-0.01,0.00,-0.01,0.01,11.55,-0.05,NONE
64482,0,11,52,-84,1501,0,0,0,1,5.08,-4.02,-9.13,-0.01,-0.02,-0.01,0.02,11.19,0.01,NONE
64686,0,8,51,-80,1506,0,0,0,1,5.04,-4.10,-9.22,0.00,0.01,-0.01,0.01,11.27,-0.01,NONE
64890,0,6,50,-79,1506,0,0,0,1,5.17,-4.02,-9.24,-0.08,0.03,-0.06,0.10,11.33,0.09,NONE
65094,0,4,49,-78,1509,0,0,0,1,5.09,-4.03,-9.10,-0.04,0.03,-0.06,0.08,11.18,-0.03,NONE
65298,0,4,50,-81,1506,0,0,0,1,4.89,-4.10,-9.06,0.00,0.01,-0.02,0.02,11.08,-0.06,NONE
65502,0,4,50,-83,1505,0,0,0,1,5.09,-4.14,-9.11,0.01,-0.01,0.00,0.01,11.23,-0.01,NONE
65706,0,3,49,-82,1505,0,0,0,1,5.15,-4.13,-9.14,0.01,0.01,-0.03,0.03,11.27,0.02,NONE
65910,0,1,50,-81,1506,0,0,0,1,5.11,-4.08,-9.25,-0.03,-0.01,-0.04,0.05,11.33,0.02,NONE
66114,0,1,49,-81,1505,0,0,0,1,4.99,-4.17,-9.09,-0.04,-0.02,-0.04,0.06,11.17,0.00,NONE
66318,0,1,47,-80,1506,0,0,0,1,4.96,-4.06,-9.21,-0.00,-0.02,0.02,0.03,11.22,-0.03,NONE
66522,0,0,45,-80,1506,0,0,0,1,5.19,-4.07,-9.18,-0.06,-0.04,-0.02,0.08,11.30,0.05,NONE
66726,0,-1,45,-79,1506,0,0,0,1,4.64,-4.25,-9.20,-0.03,0.03,-0.04,0.05,11.15,-0.02,NONE
66930,0,-1,44,-77,1506,0,0,0,1,4.93,-4.28,-9.23,-0.05,0.01,-0.02,0.06,11.31,0.00,NONE
67134,0,-2,43,-77,1506,0,0,0,1,5.11,-4.14,-9.22,-0.00,0.00,-0.01,0.01,11.33,-0.04,NONE
67338,0,-1,45,-77,1505,0,0,0,1,4.98,-4.29,-9.32,-0.02,-0.04,-0.02,0.05,11.40,0.04,NONE
67542,0,-1,44,-76,1507,0,0,0,1,5.06,-4.09,-9.15,-0.08,0.06,-0.11,0.15,11.23,0.10,NONE
67746,0,0,62,-80,1502,0,0,0,1,5.01,-4.09,-9.28,-0.00,-0.00,-0.02,0.02,11.31,-0.13,NONE
67950,0,-1,57,-78,1506,0,0,0,1,5.13,-4.09,-9.21,0.06,-0.00,-0.00,0.06,11.31,0.04,NONE
68154,0,-1,53,-78,1508,0,0,0,1,5.29,-4.15,-9.26,-0.13,0.03,-0.08,0.15,11.44,0.09,NONE
68358,0,-6,48,-77,1510,0,0,0,1,5.09,-4.17,-9.05,0.03,-0.08,0.04,0.09,11.19,-0.06,NONE
68562,0,-4,47,-75,1513,0,0,0,1,4.82,-4.22,-9.41,-0.01,0.02,-0.04,0.05,11.38,-0.04,NONE
68766,0,-4,46,-78,1513,0,0,0,1,5.20,-4.08,-9.17,-0.10,0.01,-0.09,0.13,11.31,0.09,NONE
68970,0,-3,45,-77,1515,0,0,0,1,5.09,-4.35,-9.12,-0.02,-0.00,0.03,0.04,11.32,-0.10,NONE
69174,0,-2,45,-76,1515,0,0,0,1,5.00,-4.16,-9.17,-0.07,-0.01,-0.04,0.08,11.24,0.04,NONE
69378,0,-1,41,-75,1517,0,0,0,1,4.98,-4.32,-9.11,-0.04,-0.01,-0.01,0.04,11.24,-0.04,NONE
69582,0,-2,41,-75,1518,0,0,0,1,5.16,-4.13,-9.20,0.03,-0.01,0.02,0.04,11.33,-0.00,NONE
69786,0,-1,40,-75,1518,0,0,0,1,5.10,-4.10,-9.28,-0.02,-0.01,0.00,0.02,11.36,-0.02,NONE
69990,0,-3,38,-75,1519,0,0,0,1,5.24,-4.30,-9.21,-0.04,-0.01,-0.04,0.06,11.43,0.04,NONE
70194,0,-3,38,-75,1519,0,0,0,1,4.91,-4.10,-9.19,-0.02,0.02,-0.04,0.05,11.20,-0.01,NONE
70398,0,-2,38,-75,1519,0,0,0,1,4.92,-4.19,-8.99,0.01,0.03,-0.02,0.03,11.07,-0.01,NONE
70602,0,-1,39,-74,1519,0,0,0,1,5.06,-4.21,-9.17,-0.00,-0.04,0.01,0.04,11.29,0.01,NONE
70806,0,-1,40,-74,1518,0,0,0,1,5.11,-4.10,-9.30,0.01,-0.01,0.01,0.02,11.37,-0.02,NONE
71010,0,-1,39,-75,1518,0,0,0,1,4.96,-3.96,-9.29,-0.01,0.01,-0.03,0.03,11.25,0.01,NONE
71214,0,-1,40,-75,1519,0,0,0,1,5.04,-4.34,-9.05,0.00,0.08,-0.10,0.12,11.24,0.09,NONE
71418,0,-2,40,-75,1520,0,0,0,1,4.94,-4.19,-8.97,-0.05,0.00,-0.00,0.05,11.07,-0.08,NONE
71622,0,-1,41,-75,1520,0,0,0,1,4.89,-3.92,-9.21,0.02,-0.03,0.04,0.05,11.14,0.00,NONE
71826,0,0,41,-79,1518,0,0,0,1,5.23,-4.20,-9.20,0.01,-0.03,-0.01,0.03,11.39,-0.02,NONE
72030,0,0,41,-80,1519,0,0,0,1,5.08,-4.24,-9.12,-0.01,-0.01,-0.01,0.02,11.27,-0.02,NONE
72234,0,0,40,-81,1520,0,0,0,1,4.92,-4.16,-9.13,0.02,-0.01,0.00,0.02,11.18,0.00,NONE
72438,0,0,40,-81,1521,0,0,0,1,5.17,-4.30,-9.20,0.02,-0.04,-0.01,0.04,11.39,0.02,NONE
72642,0,-1,40,-82,1521,0,0,0,1,4.95,-4.15,-9.20,-0.04,-0.01,-0.01,0.05,11.24,0.00,NONE
72846,0,-1,40,-82,1521,0,0,0,1,5.02,-4.21,-9.17,-0.07,-0.04,0.00,0.08,11.27,0.04,NONE
73050,0,0,39,-81,1523,0,0,0,1,5.20,-4.80,-9.40,0.00,-0.96,0.79,1.25,11.77,1.17,NONE
73254,0,-1,36,-83,1527,0,0,0,1,0.87,-5.32,-9.62,0.17,-1.16,1.46,1.87,11.02,0.62,NONE
73458,0,-1,31,-89,1534,0,0,0,1,-2.23,-5.43,-9.35,0.24,-0.62,0.74,0.99,11.05,-0.88,NONE
73662,0,0,26,-93,1539,0,0,0,1,-2.16,-5.48,-9.42,-0.04,0.30,-0.32,0.44,11.11,-0.55,NONE
73866,0,0,22,-105,1542,0,0,0,1,-1.31,-6.43,-9.75,0.10,0.01,0.03,0.11,11.75,-0.33,NONE
74070,0,1,18,-122,1542,0,0,0,1,-1.61,-6.02,-9.24,-0.04,0.07,-0.10,0.12,11.15,0.02,NONE
74274,0,5,16,-146,1538,0,0,0,1,-1.00,-6.06,-8.90,0.01,0.18,-0.20,0.27,10.81,0.14,NONE
74478,0,9,14,-164,1538,0,0,0,1,-0.89,-6.22,-9.13,0.01,0.08,-0.10,0.13,11.08,-0.14,NONE
74682,0,11,13,-176,1534,0,0,0,1,-0.61,-6.21,-9.10,0.01,0.06,-0.18,0.19,11.03,0.06,NONE
74886,0,13,14,-184,1530,0,0,0,1,-0.20,-6.17,-9.29,-0.15,-0.03,0.01,0.15,11.16,-0.04,NONE
75090,0,14,13,-188,1527,0,0,0,1,-0.67,-6.16,-9.63,-0.05,0.04,-0.07,0.09,11.45,-0.06,NONE
75294,0,15,13,-192,1527,0,0,0,1,-0.14,-5.95,-9.40,-0.05,0.09,-0.12,0.16,11.13,0.07,NONE
75498,0,13,14,-195,1526,0,0,0,1,-0.09,-5.98,-9.30,-0.03,0.02,-0.04,0.05,11.06,-0.11,NONE
75702,0,15,15,-199,1521,0,0,0,1,-0.16,-6.00,-9.20,-0.02,0.01,-0.04,0.05,10.99,-0.01,NONE
75906,0,16,15,-199,1521,0,0,0,1,-0.03,-6.04,-9.47,0.01,-0.01,-0.01,0.02,11.23,-0.03,NONE
76110,0,13,16,-197,1522,0,0,0,1,-0.05,-5.94,-9.56,-0.08,0.01,-0.02,0.08,11.26,0.06,NONE
76314,0,11,16,-196,1522,0,0,0,1,-0.34,-5.85,-9.11,-0.06,0.03,-0.07,0.10,10.83,0.02,NONE
76518,0,8,16,-194,1519,0,0,0,1,-0.20,-5.75,-9.50,-0.00,-0.03,-0.01,0.03,11.10,-0.07,NONE
76722,0,11,19,-194,1516,0,0,0,1,-0.05,-5.92,-9.54,-0.01,-0.03,0.01,0.03,11.23,0.00,NONE
76926,0,13,19,-195,1514,0,0,0,1,-0.13,-5.83,-9.49,-0.06,0.01,-0.03,0.07,11.13,0.03,NONE
77130,0,10,15,-198,1511,0,0,0,1,-0.14,-5.93,-9.41,-0.03,-0.01,-0.03,0.04,11.12,-0.02,NONE
77334,0,12,16,-202,1510,0,0,0,1,-0.16,-5.93,-9.61,-0.01,-0.01,0.01,0.01,11.30,-0.03,NONE
77538,0,14,16,-204,1509,0,0,0,1,0.15,-5.90,-9.67,-0.02,-0.03,0.01,0.04,11.33,0.02,NONE
77742,0,15,17,-207,1507,0,0,0,1,-0.07,-5.91,-9.56,-0.09,0.02,-0.07,0.12,11.24,0.08,NONE
77946,0,18,20,-208,1506,0,0,0,1,-0.19,-5.80,-9.31,-0.00,0.01,-0.05,0.05,10.97,-0.07,NONE
78150,0,19,23,-208,1506,0,0,0,1,0.06,-5.97,-9.64,-0.01,0.02,-0.03,0.04,11.34,-0.01,NONE
78354,0,23,24,-211,1503,0,0,0,1,-0.13,-6.03,-9.35,0.20,-0.10,0.22,0.31,11.12,0.27,NONE
78558,0,23,23,-211,1504,0,0,0,1,0.04,-5.94,-9.41,-0.08,0.01,-0.06,0.10,11.13,-0.21,NONE
78762,0,24,25,-213,1503,0,0,0,1,-0.01,-5.99,-9.44,-0.01,-0.02,-0.01,0.03,11.18,-0.07,NONE
78966,0,26,25,-206,1505,0,0,0,1,-0.03,-6.03,-9.51,-0.01,-0.01,-0.01,0.02,11.26,-0.01,NONE
79170,0,28,27,-208,1526,0,0,0,1,-0.01,-5.98,-9.28,-0.10,0.02,-0.14,0.17,11.04,0.16,NONE
79374,0,21,26,-200,1525,0,0,0,1,0.64,-5.78,-9.56,-0.16,0.15,-0.44,0.49,11.19,0.32,NONE
79578,0,16,26,-193,1523,0,0,0,1,1.52,-5.68,-9.49,-0.27,0.32,-0.41,0.58,11.17,0.09,NONE
79782,0,29,23,-188,1522,0,0,0,1,2.08,-5.47,-9.48,0.16,0.16,-0.14,0.26,11.14,-0.32,NONE
79986,0,26,29,-187,1518,0,0,0,1,2.41,-4.93,-9.84,-0.10,0.17,-0.22,0.29,11.27,0.03,NONE
80190,0,26,40,-195,1516,0,0,0,1,5.46,-5.10,-9.35,0.08,0.18,-0.29,0.35,11.97,0.06,NONE
80394,0,29,53,-209,1506,0,0,0,1,4.89,-4.12,-9.13,-0.02,-0.01,-0.19,0.19,11.15,-0.16,NONE
80598,0,32,68,-225,1471,0,0,0,1,4.83,-3.85,-9.36,-0.08,-0.06,-0.01,0.10,11.22,-0.09,NONE
80802,0,34,80,-237,1468,0,0,0,1,4.85,-3.75,-9.50,-0.04,-0.01,-0.03,0.05,11.30,-0.05,NONE
81006,0,36,88,-245,1466,0,0,0,1,4.84,-3.81,-9.44,-0.02,-0.02,-0.02,0.04,11.28,-0.01,NONE
81210,0,37,95,-251,1465,0,0,0,1,4.90,-3.79,-9.43,-0.04,-0.00,-0.01,0.04,11.29,0.00,NONE
81414,0,38,100,-255,1463,0,0,0,1,4.75,-3.70,-9.51,0.01,0.01,-0.04,0.04,11.26,-0.00,NONE
81618,0,40,103,-257,1463,0,0,0,1,4.81,-3.67,-9.64,-0.03,-0.08,0.07,0.11,11.38,0.07,NONE
81822,0,42,106,-256,1462,0,0,0,1,4.85,-3.65,-9.43,-0.10,0.02,-0.09,0.14,11.22,0.02,NONE
82026,0,42,108,-258,1460,0,0,0,1,4.52,-3.66,-9.49,-0.03,-0.00,-0.03,0.04,11.13,-0.10,NONE
82230,0,41,104,-256,1461,0,0,0,1,4.62,-3.73,-9.55,-0.02,0.01,-0.03,0.03,11.24,-0.01,NONE
82434,0,40,102,-254,1461,0,0,0,1,4.65,-3.74,-9.49,-0.01,-0.02,-0.01,0.02,11.21,-0.01,NONE
82638,0,40,100,-253,1461,0,0,0,1,4.75,-3.67,-9.56,-0.02,0.00,-0.01,0.02,11.29,-0.00,NONE
82842,0,40,104,-252,1462,0,0,0,1,4.76,-3.79,-9.56,-0.05,-0.03,-0.01,0.06,11.33,0.04,NONE
83046,0,41,106,-253,1460,0,0,0,1,4.82,-3.74,-9.49,-0.00,0.02,-0.02,0.03,11.29,-0.02,NONE
83250,0,40,103,-252,1460,0,0,0,1,4.90,-3.77,-9.47,-0.04,0.01,-0.03,0.06,11.31,0.02,NONE
83454,0,41,106,-251,1462,0,0,0,1,4.82,-3.64,-9.62,-0.01,-0.01,-0.02,0.02,11.36,-0.03,NONE
83658,0,41,108,-244,1462,0,0,0,1,4.63,-3.69,-9.69,0.01,0.00,-0.01,0.02,11.35,-0.01,NONE
83862,0,40,104,-243,1463,0,0,0,1,4.69,-3.67,-9.69,-0.03,-0.01,-0.01,0.03,11.37,0.02,NONE
84066,0,39,102,-244,1464,0,0,0,1,4.73,-3.69,-9.60,-0.03,-0.02,-0.01,0.04,11.32,0.00,NONE
84270,0,38,100,-242,1467,0,0,0,1,4.66,-3.67,-9.59,-0.02,0.02,-0.03,0.04,11.27,0.00,NONE
84474,0,37,99,-243,1468,0,0,0,1,4.62,-3.66,-9.59,-0.03,0.01,-0.03,0.05,11.26,0.01,NONE
84678,0,37,103,-243,1468,0,0,0,1,4.64,-3.62,-9.67,-0.02,0.02,-0.04,0.05,11.32,0.01,NONE
84882,0,36,101,-244,1473,0,0,0,1,4.52,-3.68,-9.61,-0.05,0.00,-0.02,0.06,11.24,0.00,NONE
85086,0,38,104,-246,1469,0,0,0,1,4.58,-3.73,-9.59,-0.02,-0.02,-0.01,0.03,11.27,-0.03,NONE
85290,0,38,101,-245,1468,0,0,0,1,4.72,-3.73,-9.57,-0.01,-0.01,-0.00,0.02,11.31,-0.01,NONE
85494,0,38,99,-245,1469,0,0,0,1,4.70,-3.68,-9.62,-0.01,0.02,-0.03,0.04,11.33,0.02,NONE
85698,0,37,96,-244,1470,0,0,0,1,4.66,-3.68,-9.61,-0.03,0.02,-0.03,0.05,11.30,0.01,NONE
85902,0,37,95,-244,1469,0,0,0,1,4.71,-3.68,-9.58,-0.03,0.01,-0.03,0.05,11.29,0.00,NONE
86106,0,36,93,-242,1469,0,0,0,1,4.78,-3.74,-9.62,0.00,-0.01,-0.01,0.02,11.38,-0.03,NONE
86310,0,37,92,-241,1469,0,0,0,1,4.49,-3.62,-9.63,-0.04,0.03,-0.04,0.06,11.22,0.04,NONE
86514,0,37,91,-241,1469,0,0,0,1,4.63,-3.64,-9.72,-0.03,0.03,-0.04,0.06,11.36,0.00,NONE
86718,0,37,90,-240,1470,0,0,0,1,4.60,-3.71,-9.62,-0.03,0.02,-0.04,0.06,11.29,-0.00,NONE
86922,0,36,89,-239,1470,0,0,0,1,4.56,-3.72,-9.62,-0.01,-0.01,-0.02,0.02,11.27,-0.04,NONE
87126,0,38,88,-239,1467,0,0,0,1,4.55,-3.74,-9.64,-0.02,-0.01,-0.02,0.03,11.30,0.01,NONE
87330,0,38,88,-239,1468,0,0,0,1,4.55,-3.74,-9.63,-0.04,0.02,-0.04,0.06,11.29,0.03,NONE
87534,0,38,86,-238,1469,0,0,0,1,4.56,-3.75,-9.67,-0.02,-0.00,-0.02,0.03,11.33,-0.03,NONE
87738,0,37,86,-237,1470,0,0,0,1,4.43,-3.74,-9.59,-0.04,-0.00,-0.02,0.04,11.21,0.01,NONE
87942,0,36,86,-237,1470,0,0,0,1,4.69,-3.80,-9.55,-0.01,-0.01,-0.01,0.02,11.30,-0.02,NONE
88146,0,36,86,-238,1469,0,0,0,1,4.74,-3.73,-9.61,-0.02,-0.00,-0.02,0.03,11.34,0.01,NONE
88350,0,35,85,-237,1469,0,0,0,1,4.67,-3.75,-9.63,-0.01,-0.01,-0.01,0.02,11.34,-0.01,NONE
88554,0,35,78,-237,1469,0,0,0,1,4.74,-3.79,-9.60,-0.01,-0.01,-0.01,0.02,11.36,0.00,NONE
88758,0,35,80,-237,1470,0,0,0,1,4.59,-3.78,-9.56,-0.02,-0.00,-0.02,0.03,11.26,0.01,NONE
88962,0,35,73,-237,1472,0,0,0,1,4.64,-3.73,-9.51,-0.00,-0.02,-0.01,0.02,11.22,-0.01,NONE
89166,0,35,76,-237,1472,0,0,0,1,4.66,-3.75,-9.53,-0.01,-0.01,-0.01,0.01,11.25,-0.01,NONE
89370,0,35,77,-237,1471,0,0,0,1,4.57,-3.79,-9.47,-0.01,-0.00,-0.01,0.02,11.17,0.00,NONE
89574,0,35,79,-239,1470,0,0,0,1,4.61,-3.71,-9.58,-0.03,0.02,-0.03,0.05,11.26,0.03,NONE
89778,0,35,80,-238,1471,0,0,0,1,4.64,-3.68,-9.65,-0.04,0.02,-0.04,0.06,11.32,0.02,NONE
89982,0,37,82,-237,1472,0,0,0,1,4.66,-3.68,-9.67,-0.04,0.01,-0.04,0.05,11.35,-0.01,NONE
90186,0,37,81,-237,1472,0,0,0,1,4.69,-3.73,-9.67,-0.02,0.01,-0.03,0.03,11.37,-0.02,NONE
90390,0,37,82,-236,1471,0,0,0,1,4.69,-3.65,-9.64,-0.04,0.03,-0.05,0.07,11.32,0.04,NONE
90594,0,37,83,-236,1472,0,0,0,1,4.72,-3.69,-9.68,-0.03,0.01,-0.03,0.05,11.38,-0.02,NONE
90798,0,36,83,-236,1472,0,0,0,1,4.62,-3.69,-9.67,-0.03,0.03,-0.05,0.07,11.34,0.02,NONE
91002,0,36,83,-236,1472,0,0,0,1,4.65,-3.71,-9.65,-0.01,-0.01,-0.01,0.02,11.34,-0.05,NONE
91206,0,36,91,-238,1468,0,0,0,1,4.58,-3.67,-9.59,-0.04,0.02,-0.04,0.06,11.24,0.04,NONE
91410,0,36,89,-237,1468,0,0,0,1,4.52,-3.70,-9.66,-0.05,0.03,-0.05,0.08,11.29,0.02,NONE
91614,0,35,87,-237,1469,0,0,0,1,4.56,-3.77,-9.68,0.00,-0.04,0.02,0.04,11.35,-0.03,NONE
91818,0,36,88,-238,1468,0,0,0,1,4.78,-3.75,-9.67,0.02,-0.02,0.01,0.03,11.42,-0.01,NONE
92022,0,35,87,-226,1462,0,0,0,1,4.80,-3.79,-9.63,0.01,-0.04,0.02,0.05,11.41,0.02,NONE
92226,0,36,86,-228,1464,0,0,0,1,4.77,-3.71,-9.66,-0.02,0.02,-0.03,0.04,11.39,-0.01,NONE
92430,0,35,85,-230,1465,0,0,0,1,4.73,-3.71,-9.64,-0.03,0.00,-0.05,0.06,11.37,0.02,NONE
92634,0,35,85,-231,1467,0,0,0,1,4.62,-3.70,-9.62,-0.02,0.00,-0.02,0.03,11.30,-0.03,NONE
92838,0,36,84,-232,1469,0,0,0,1,4.70,-3.73,-9.55,-0.00,-0.01,-0.01,0.01,11.28,-0.01,NONE
93042,0,36,84,-233,1469,0,0,0,1,4.61,-3.72,-9.58,-0.03,0.01,-0.03,0.04,11.26,0.03,NONE
93246,0,36,83,-234,1469,0,0,0,1,4.50,-3.69,-9.58,-0.04,0.01,-0.03,0.06,11.21,0.01,NONE
93450,0,36,83,-234,1469,0,0,0,1,4.59,-3.68,-9.60,-0.02,-0.01,-0.01,0.03,11.26,-0.03,NONE
93654,0,35,82,-235,1467,0,0,0,1,4.53,-3.72,-9.47,-0.02,-0.02,-0.01,0.03,11.14,0.00,NONE
93858,0,35,82,-234,1468,0,0,0,1,4.69,-3.73,-9.62,-0.02,0.00,-0.02,0.03,11.34,-0.00,NONE
94062,0,34,82,-234,1466,0,0,0,1,4.63,-3.75,-9.55,-0.01,-0.02,-0.01,0.02,11.25,-0.01,NONE
94266,0,35,81,-235,1468,0,0,0,1,4.59,-3.77,-9.52,-0.02,-0.02,-0.01,0.03,11.22,0.01,NONE
94470,0,31,81,-235,1469,0,0,0,1,4.63,-3.73,-9.57,-0.02,-0.01,-0.01,0.02,11.26,-0.00,NONE
94674,0,28,81,-235,1470,0,0,0,1,4.73,-3.74,-9.58,0.01,0.01,-0.02,0.02,11.32,-0.00,NONE
94878,0,29,80,-235,1470,0,0,0,1,4.70,-3.73,-9.63,-0.00,-0.01,-0.01,0.02,11.35,-0.01,NONE
95082,0,31,80,-235,1471,0,0,0,1,4.61,-3.76,-9.53,0.01,-0.00,-0.02,0.02,11.23,0.00,NONE
95286,0,32,80,-234,1471,0,0,0,1,4.62,-3.70,-9.59,-0.02,0.00,-0.02,0.03,11.27,0.01,NONE
95490,0,33,80,-234,1464,0,0,0,1,4.53,-3.71,-9.53,0.00,-0.01,-0.00,0.01,11.18,-0.02,NONE
95694,0,35,80,-235,1464,0,0,0,1,4.65,-3.74,-9.60,-0.02,-0.01,-0.01,0.02,11.30,0.01,NONE
95898,0,35,80,-235,1465,0,0,0,1,4.68,-3.74,-9.70,-0.02,-0.01,-0.02,0.03,11.40,0.01,NONE
96102,0,36,81,-237,1468,0,0,0,1,4.49,-3.66,-9.63,-0.04,0.02,-0.04,0.06,11.24,0.03,NONE
96306,0,35,80,-236,1469,0,0,0,1,4.47,-3.68,-9.61,-0.05,0.03,-0.06,0.08,11.22,0.02,NONE
96510,0,35,80,-235,1469,0,0,0,1,4.52,-3.69,-9.66,-0.05,0.02,-0.05,0.07,11.29,-0.01,NONE
96714,0,35,80,-235,1469,0,0,0,1,4.60,-3.75,-9.65,-0.04,0.01,-0.03,0.05,11.33,-0.02,NONE
96918,0,35,80,-235,1469,0,0,0,1,4.63,-3.72,-9.59,-0.02,-0.00,-0.02,0.03,11.27,-0.01,NONE
97122,0,35,81,-235,1469,0,0,0,1,4.64,-3.70,-9.51,-0.02,0.01,-0.02,0.03,11.21,0.00,NONE
97326,0,35,81,-235,1469,0,0,0,1,4.60,-3.68,-9.58,-0.03,0.02,-0.04,0.05,11.25,0.02,NONE
97530,0,34,82,-235,1469,0,0,0,1,4.55,-3.69,-9.63,-0.03,0.02,-0.04,0.06,11.27,0.00,NONE
97734,0,35,81,-235,1470,0,0,0,1,4.57,-3.70,-9.61,-0.03,0.00,-0.03,0.04,11.27,-0.02,NONE
97938,0,34,82,-235,1467,0,0,0,1,4.68,-3.74,-9.60,-0.02,-0.00,-0.02,0.03,11.32,-0.01,NONE
98142,0,33,84,-235,1461,0,0,0,1,4.70,-3.71,-9.55,-0.02,0.02,-0.03,0.04,11.27,0.01,NONE
98346,0,33,86,-234,1457,0,0,0,1,4.60,-3.70,-9.62,-0.03,0.01,-0.03,0.04,11.29,-0.00,NONE
98550,0,33,87,-233,1453,0,0,0,1,4.64,-3.76,-9.58,-0.02,0.01,-0.02,0.03,11.29,-0.01,NONE
98754,0,33,88,-233,1450,0,0,0,1,4.72,-3.69,-9.58,-0.04,0.01,-0.03,0.05,11.30,0.02,NONE
98958,0,33,87,-232,1448,0,0,0,1,4.69,-3.68,-9.57,-0.01,0.00,-0.02,0.02,11.28,-0.03,NONE
99162,0,33,86,-233,1447,0,0,0,1,4.79,-3.75,-9.55,-0.03,0.03,-0.03,0.05,11.32,0.03,NONE
99366,0,33,87,-233,1446,0,0,0,1,4.74,-3.70,-9.57,-0.03,-0.01,-0.02,0.04,11.30,-0.02,NONE
99570,0,33,87,-233,1445,0,0,0,1,4.65,-3.65,-9.63,-0.02,0.01,-0.02,0.03,11.30,-0.01,NONE
99774,0,36,87,-233,1445,0,0,0,1,4.70,-3.69,-9.60,-0.02,0.00,-0.03,0.03,11.31,0.00,NONE
99978,0,35,88,-232,1445,0,0,0,1,4.69,-3.68,-9.58,-0.04,-0.02,-0.02,0.05,11.28,0.02,NONE
100182,0,36,58,-232,1445,0,0,0,1,4.81,-3.62,-9.58,-0.02,0.00,-0.01,0.02,11.31,-0.03,NONE
100386,0,35,63,-233,1445,0,0,0,1,4.70,-3.64,-9.57,-0.03,0.00,-0.03,0.04,11.27,0.02,NONE
100590,0,35,70,-228,1445,0,0,0,1,4.74,-3.62,-9.60,-0.02,0.00,-0.02,0.03,11.31,-0.01,NONE
100794,0,35,81,-229,1445,0,0,0,1,4.73,-3.62,-9.59,-0.02,0.01,-0.02,0.03,11.29,-0.00,NONE
100998,0,34,83,-229,1446,0,0,0,1,4.79,-3.67,-9.58,-0.01,0.01,-0.02,0.03,11.32,-0.00,NONE
101202,0,34,86,-230,1446,0,0,0,1,4.74,-3.69,-9.56,-0.01,0.02,-0.03,0.04,11.29,0.01,NONE
101406,0,34,87,-231,1445,0,0,0,1,4.74,-3.66,-9.54,-0.01,0.00,-0.03,0.03,11.26,-0.01,NONE
101610,0,33,88,-231,1445,0,0,0,1,4.73,-3.63,-9.60,-0.03,-0.03,-0.01,0.05,11.30,0.02,NONE
101814,0,33,104,-235,1451,0,0,0,1,4.68,-3.62,-9.57,-0.03,-0.01,-0.01,0.03,11.25,-0.02,NONE
102018,0,33,101,-235,1450,0,0,0,1,4.70,-3.65,-9.52,-0.04,0.00,-0.02,0.04,11.23,0.01,NONE
102222,0,33,97,-233,1450,0,0,0,1,4.79,-3.71,-9.55,0.01,0.01,-0.02,0.03,11.31,-0.01,NONE
102426,0,33,95,-232,1451,0,0,0,1,4.71,-3.65,-9.59,-0.00,-0.02,-0.01,0.02,11.29,-0.01,NONE
102630,0,34,100,-242,1447,0,0,0,1,4.72,-3.72,-9.58,-0.01,0.01,-0.03,0.03,11.31,0.01,NONE
102834,0,34,97,-237,1449,0,0,0,1,4.81,-3.67,-9.57,-0.02,0.00,-0.02,0.03,11.33,-0.00,NONE
103038,0,34,95,-231,1450,0,0,0,1,4.87,-3.71,-9.55,-0.02,-0.01,0.00,0.02,11.35,-0.00,NONE
103242,0,34,102,-227,1450,0,0,0,1,4.66,-3.66,-9.54,0.03,-0.00,0.01,0.03,11.23,0.01,NONE
103446,0,33,106,-223,1452,0,0,0,1,5.03,-3.77,-9.57,-0.01,0.01,-0.02,0.03,11.45,-0.00,NONE
103650,0,33,110,-221,1452,0,0,0,1,4.99,-3.64,-9.51,-0.03,0.03,-0.02,0.05,11.34,0.02,NONE
103854,0,33,111,-218,1452,0,0,0,1,4.94,-3.62,-9.49,-0.03,0.01,-0.03,0.04,11.30,-0.01,NONE
104058,0,33,114,-218,1454,0,0,0,1,4.85,-3.72,-9.49,-0.02,-0.01,-0.02,0.03,11.29,-0.01,NONE
104262,0,33,115,-217,1455,0,0,0,1,4.92,-3.70,-9.44,-0.01,-0.01,-0.01,0.02,11.27,-0.01,NONE
104466,0,33,115,-215,1455,0,0,0,1,4.82,-3.71,-9.51,-0.02,-0.02,-0.02,0.03,11.29,0.01,NONE
104670,0,34,115,-214,1455,0,0,0,1,4.88,-3.62,-9.48,-0.00,0.02,-0.03,0.03,11.26,0.00,NONE
104874,0,34,117,-215,1455,0,0,0,1,4.87,-3.71,-9.50,-0.02,-0.01,-0.02,0.03,11.30,-0.00,NONE
105078,0,34,125,-214,1456,0,0,0,1,4.90,-3.75,-9.52,-0.02,-0.01,-0.02,0.03,11.35,0.00,NONE
105282,0,34,122,-212,1456,0,0,0,1,4.96,-3.78,-9.44,-0.04,-0.02,-0.01,0.05,11.31,0.02,NONE
105486,0,33,120,-211,1455,0,0,0,1,4.96,-3.73,-9.46,0.00,0.01,-0.03,0.03,11.32,-0.02,NONE
105690,0,29,119,-210,1456,0,0,0,1,4.84,-3.68,-9.53,-0.07,-0.03,0.00,0.07,11.30,0.04,NONE
105894,0,30,118,-210,1456,0,0,0,1,4.92,-3.72,-9.45,-0.03,-0.02,-0.01,0.04,11.28,-0.04,NONE
106098,0,31,117,-211,1443,0,0,0,1,4.60,-3.67,-9.55,-0.01,0.01,-0.03,0.03,11.22,-0.00,NONE
106302,0,31,117,-214,1434,0,0,0,1,4.75,-3.68,-9.53,-0.01,0.01,-0.02,0.03,11.27,-0.01,NONE
106506,0,30,117,-212,1440,0,0,0,1,4.82,-3.70,-9.47,-0.02,0.00,-0.02,0.03,11.25,0.01,NONE
106710,0,31,116,-210,1445,0,0,0,1,4.89,-3.72,-9.51,-0.01,0.01,-0.03,0.03,11.32,-0.00,NONE
106914,0,31,91,-215,1452,0,0,0,1,4.81,-3.69,-9.51,-0.02,-0.01,-0.02,0.03,11.28,-0.01,NONE
107118,0,32,97,-213,1455,0,0,0,1,4.89,-3.71,-9.47,-0.02,0.00,-0.02,0.03,11.29,0.00,NONE
107322,0,32,101,-212,1455,0,0,0,1,4.83,-3.70,-9.49,-0.02,0.01,-0.03,0.04,11.27,0.01,NONE
107526,0,33,105,-213,1457,0,0,0,1,4.79,-3.65,-9.54,-0.03,0.00,-0.02,0.03,11.29,-0.01,NONE
107730,0,33,107,-212,1457,0,0,0,1,4.76,-3.67,-9.57,-0.01,0.02,-0.03,0.04,11.30,0.00,NONE
107934,0,34,109,-213,1458,0,0,0,1,4.94,-3.74,-9.45,-0.01,-0.00,-0.03,0.03,11.30,-0.00,NONE
108138,0,33,110,-212,1458,0,0,0,1,4.74,-3.67,-9.51,-0.02,-0.00,-0.02,0.03,11.24,-0.01,NONE
108342,0,33,111,-211,1458,0,0,0,1,4.90,-3.70,-9.51,-0.01,0.01,-0.02,0.03,11.32,-0.00,NONE
108546,0,31,112,-212,1458,0,0,0,1,4.92,-3.71,-9.50,-0.01,0.00,-0.02,0.03,11.32,0.00,NONE
108750,0,33,113,-213,1458,0,0,0,1,4.86,-3.71,-9.49,-0.02,-0.00,-0.02,0.02,11.29,-0.00,NONE
108954,0,32,113,-214,1458,0,0,0,1,4.96,-3.71,-9.43,-0.02,0.00,-0.02,0.03,11.28,0.00,NONE
109158,0,32,114,-215,1459,0,0,0,1,4.93,-3.70,-9.48,-0.01,0.00,-0.03,0.03,11.31,0.00,NONE
109362,0,34,114,-217,1457,0,0,0,1,4.83,-3.71,-9.49,-0.01,0.01,-0.03,0.03,11.28,-0.00,NONE
109566,0,36,108,-217,1457,0,0,0,1,4.89,-3.71,-9.48,-0.02,0.00,-0.02,0.03,11.29,0.00,NONE
109770,0,35,110,-214,1458,0,0,0,1,4.86,-3.70,-9.51,-0.03,-0.02,-0.01,0.04,11.30,0.01,NONE
109974,0,35,111,-218,1459,0,0,0,1,4.85,-3.68,-9.50,-0.02,0.00,-0.02,0.03,11.28,-0.01,NONE
110178,0,34,112,-217,1459,0,0,0,1,4.96,-3.70,-9.44,-0.02,0.00,-0.02,0.03,11.29,0.00,NONE
110382,0,35,113,-217,1457,0,0,0,1,4.92,-3.72,-9.43,-0.02,-0.01,-0.02,0.03,11.27,0.00,NONE
110586,0,33,113,-217,1457,0,0,0,1,4.89,-3.69,-9.51,-0.01,0.00,-0.02,0.02,11.31,-0.01,NONE
110790,0,33,113,-216,1458,0,0,0,1,4.83,-3.69,-9.47,-0.02,-0.00,-0.01,0.03,11.25,0.01,NONE
110994,0,33,114,-215,1465,0,0,0,1,4.82,-3.66,-9.54,0.01,0.03,-0.04,0.05,11.30,0.02,NONE
111198,0,32,114,-216,1463,0,0,0,1,5.23,-3.67,-9.37,0.03,0.05,-0.07,0.09,11.34,0.04,NONE
111402,0,32,114,-214,1463,0,0,0,1,4.88,-3.73,-9.45,-0.03,0.00,-0.01,0.03,11.27,-0.06,NONE
111606,0,32,114,-214,1461,0,0,0,1,5.20,-3.68,-9.40,0.01,0.03,-0.04,0.05,11.36,0.02,NONE
111810,0,33,114,-213,1462,0,0,0,1,4.90,-3.84,-9.40,-0.02,0.04,-0.02,0.05,11.27,-0.00,NONE
112014,0,33,114,-213,1461,0,0,0,1,4.95,-3.67,-9.42,-0.01,0.02,-0.03,0.04,11.26,-0.01,NONE
112218,0,33,114,-212,1461,0,0,0,1,5.04,-3.75,-9.35,-0.01,-0.00,-0.03,0.03,11.26,-0.01,NONE
112422,0,32,114,-212,1461,0,0,0,1,4.94,-3.73,-9.41,-0.02,-0.00,-0.02,0.03,11.26,-0.00,NONE
112626,0,32,114,-211,1460,0,0,0,1,4.93,-3.84,-9.36,-0.03,-0.00,-0.02,0.03,11.25,0.00,NONE
112830,0,31,114,-212,1460,0,0,0,1,4.88,-3.81,-9.42,-0.01,0.00,-0.02,0.02,11.27,-0.01,NONE
113034,0,31,108,-210,1460,0,0,0,1,4.95,-3.79,-9.39,-0.02,-0.04,-0.00,0.05,11.27,0.03,NONE
113238,0,31,110,-210,1459,0,0,0,1,4.94,-3.72,-9.40,-0.02,-0.00,-0.02,0.03,11.25,-0.02,NONE
113442,0,32,111,-210,1459,0,0,0,1,4.90,-3.78,-9.36,-0.01,0.01,-0.03,0.04,11.22,0.01,NONE
113646,0,32,112,-209,1459,0,0,0,1,5.03,-3.79,-9.35,0.01,0.01,-0.01,0.02,11.28,-0.02,NONE
113850,0,32,113,-212,1459,0,0,0,1,4.92,-3.78,-9.37,-0.01,-0.00,-0.03,0.03,11.24,0.01,NONE
114054,0,32,113,-212,1459,0,0,0,1,4.98,-3.83,-9.33,-0.01,0.00,-0.02,0.02,11.25,-0.01,NONE
114258,0,32,113,-211,1459,0,0,0,1,4.81,-3.80,-9.42,-0.02,0.00,-0.02,0.03,11.24,0.01,NONE
114462,0,32,114,-211,1459,0,0,0,1,5.02,-3.87,-9.34,-0.01,-0.00,-0.03,0.04,11.29,0.01,NONE
114666,0,31,114,-209,1460,0,0,0,1,4.50,-3.69,-9.35,-0.08,0.03,-0.04,0.09,11.01,0.06,NONE
114870,0,31,114,-217,1463,0,0,0,1,4.79,-3.79,-9.47,-0.03,0.00,-0.03,0.05,11.27,-0.05,NONE
115074,0,31,114,-214,1462,0,0,0,1,5.09,-3.78,-9.35,0.00,-0.01,-0.02,0.02,11.30,-0.03,NONE
115278,0,31,114,-217,1466,0,0,0,1,4.82,-3.84,-9.47,-0.03,0.05,0.01,0.06,11.30,0.04,NONE
115482,0,31,114,-214,1465,0,0,0,1,4.94,-3.74,-9.45,-0.01,0.03,-0.02,0.04,11.30,-0.02,NONE
115686,0,31,114,-211,1468,0,0,0,1,4.86,-3.74,-9.44,-0.02,-0.01,-0.01,0.03,11.25,-0.01,NONE
115890,0,32,114,-209,1466,0,0,0,1,5.02,-3.78,-9.37,-0.03,-0.01,-0.02,0.03,11.28,0.00,NONE
116094,0,32,114,-210,1463,0,0,0,1,4.98,-3.73,-9.37,-0.02,0.00,-0.02,0.03,11.25,-0.01,NONE
116298,0,33,114,-209,1463,0,0,0,1,4.85,-3.69,-9.50,-0.02,0.01,-0.03,0.03,11.28,0.01,NONE
116502,0,33,114,-208,1461,0,0,0,1,4.79,-3.66,-9.49,-0.03,-0.00,-0.02,0.03,11.24,-0.00,NONE
116706,0,32,107,-207,1463,0,0,0,1,4.94,-3.74,-9.43,-0.02,0.01,-0.03,0.04,11.29,0.00,NONE
116910,0,33,109,-207,1464,0,0,0,1,4.95,-3.73,-9.44,-0.01,0.01,-0.02,0.03,11.29,-0.01,NONE
117114,0,33,111,-207,1465,0,0,0,1,5.03,-3.73,-9.40,-0.03,-0.00,-0.02,0.04,11.29,0.01,NONE
117318,0,32,107,-206,1464,0,0,0,1,4.82,-3.65,-9.48,-0.02,0.00,-0.02,0.03,11.24,-0.01,NONE
117522,0,32,109,-205,1464,0,0,0,1,4.94,-3.73,-9.40,-0.02,0.00,-0.02,0.03,11.26,-0.00,NONE
117726,0,32,110,-205,1462,0,0,0,1,4.90,-3.70,-9.47,-0.02,-0.00,-0.02,0.03,11.29,0.00,NONE
117930,0,32,111,-209,1459,0,0,0,1,4.96,-3.70,-9.39,-0.02,0.01,-0.03,0.03,11.25,0.00,NONE
118134,0,32,112,-209,1460,0,0,0,1,5.05,-3.76,-9.38,-0.00,0.02,-0.04,0.04,11.30,0.01,NONE
118338,0,32,108,-208,1461,0,0,0,1,4.99,-3.77,-9.38,-0.03,-0.01,-0.02,0.04,11.27,-0.01,NONE
118542,0,31,109,-209,1459,0,0,0,1,5.02,-3.72,-9.42,-0.03,-0.01,-0.02,0.03,11.30,-0.00,NONE
118746,0,31,111,-208,1461,0,0,0,1,4.92,-3.70,-9.47,-0.03,-0.01,-0.03,0.04,11.30,0.00,NONE
118950,0,32,131,-210,1458,0,0,0,1,4.97,-3.72,-9.41,-0.02,0.00,-0.02,0.03,11.27,-0.01,NONE
119154,0,31,127,-209,1459,0,0,0,1,4.91,-3.66,-9.45,-0.02,-0.00,-0.02,0.03,11.26,-0.00,NONE
119358,0,31,118,-208,1460,0,0,0,1,5.09,-3.78,-9.34,-0.01,0.01,-0.02,0.03,11.29,-0.00,NONE
119562,0,33,123,-207,1461,0,0,0,1,5.07,-3.74,-9.34,-0.03,-0.01,-0.01,0.04,11.27,0.01,NONE
119766,0,33,121,-207,1462,0,0,0,1,4.98,-3.71,-9.44,-0.03,-0.00,-0.02,0.03,11.30,-0.00,NONE
119970,0,32,119,-207,1462,0,0,0,1,5.05,-3.73,-9.38,-0.02,0.00,-0.02,0.03,11.29,-0.00,NONE
120174,0,33,118,-208,1460,0,0,0,1,4.88,-3.70,-9.47,-0.01,0.01,-0.03,0.03,11.28,0.00,NONE
120378,0,33,112,-207,1462,0,0,0,1,5.02,-3.74,-9.40,-0.02,0.00,-0.02,0.03,11.30,-0.00,NONE
120582,0,32,113,-207,1462,0,0,0,1,4.98,-3.72,-9.41,-0.01,0.01,-0.02,0.03,11.28,0.00,NONE
120786,0,32,108,-206,1462,0,0,0,1,5.01,-3.72,-9.42,-0.02,-0.00,-0.02,0.03,11.30,0.00,NONE
120990,0,31,110,-205,1463,0,0,0,1,4.88,-3.68,-9.45,-0.02,-0.00,-0.02,0.03,11.25,-0.00,NONE
121194,0,31,111,-205,1464,0,0,0,1,5.04,-3.70,-9.40,-0.01,-0.00,-0.02,0.02,11.29,-0.00,NONE
121398,0,32,107,-205,1465,0,0,0,1,4.79,-3.62,-9.54,0.00,0.02,-0.04,0.04,11.27,0.02,NONE
121602,0,31,109,-204,1465,0,0,0,1,5.09,-3.70,-9.40,-0.01,0.02,-0.04,0.05,11.31,0.01,NONE
121806,0,32,110,-206,1463,0,0,0,1,5.13,-3.76,-9.36,0.00,0.02,-0.04,0.04,11.32,-0.01,NONE
122010,0,31,111,-206,1464,0,0,0,1,4.90,-3.69,-9.45,-0.01,0.01,-0.02,0.02,11.27,-0.02,NONE
122214,0,32,112,-207,1462,0,0,0,1,4.99,-3.76,-9.40,-0.01,0.01,-0.01,0.02,11.29,-0.00,NONE
122418,0,32,107,-206,1462,0,0,0,1,4.88,-3.78,-9.33,-0.05,-0.02,-0.01,0.05,11.18,0.03,NONE
122622,0,32,103,-204,1467,0,0,0,1,5.03,-3.67,-9.45,-0.01,-0.01,-0.01,0.02,11.32,-0.03,NONE
122826,0,32,98,-203,1472,0,0,0,1,4.90,-3.68,-9.51,0.00,-0.00,-0.01,0.01,11.31,-0.01,NONE
123030,0,31,94,-198,1478,0,0,0,1,4.82,-3.67,-9.43,-0.00,0.00,-0.01,0.01,11.21,-0.00,NONE
123234,0,29,89,-182,1490,0,0,0,1,5.02,-3.68,-9.43,-0.02,-0.02,-0.02,0.03,11.30,0.03,NONE
123438,0,21,82,-156,1503,0,0,0,1,5.03,-3.60,-9.40,-0.09,-0.02,-0.03,0.10,11.25,0.06,NONE
123642,0,16,73,-130,1505,0,0,0,1,4.98,-3.33,-9.42,-0.17,0.04,-0.13,0.22,11.17,0.12,NONE
123846,0,11,63,-107,1517,0,0,0,1,4.92,-3.34,-9.50,-0.07,0.01,-0.06,0.09,11.21,-0.13,NONE
124050,0,8,55,-89,1531,0,0,0,1,5.00,-3.27,-9.54,-0.03,-0.03,-0.01,0.04,11.25,-0.05,NONE
124254,0,7,51,-77,1536,0,0,0,1,4.94,-3.20,-9.62,0.01,-0.02,-0.00,0.03,11.27,-0.02,NONE
124458,0,4,46,-63,1542,0,0,0,1,5.08,-3.19,-9.66,-0.05,-0.01,-0.03,0.06,11.37,0.03,NONE
124662,0,3,43,-55,1544,0,0,0,1,5.07,-2.96,-9.88,-0.18,-0.06,-0.04,0.20,11.49,0.14,NONE
124866,0,0,41,-47,1548,0,0,0,1,5.11,-2.86,-9.68,-0.05,0.04,-0.03,0.07,11.31,-0.13,NONE
125070,0,0,37,-39,1551,0,0,0,1,5.14,-2.83,-9.68,-0.02,0.01,-0.02,0.03,11.32,-0.04,NONE
125274,0,-1,36,-37,1553,0,0,0,1,5.04,-3.02,-9.67,-0.03,0.03,-0.03,0.06,11.32,0.03,NONE
125478,0,-1,36,-36,1557,0,0,0,1,5.14,-3.00,-9.71,-0.01,-0.00,-0.02,0.03,11.39,-0.03,NONE
125682,0,-2,35,-34,1557,0,0,0,1,5.10,-2.95,-9.69,0.00,0.01,-0.02,0.02,11.34,-0.00,NONE
125886,0,-2,35,-35,1556,0,0,0,1,5.35,-3.02,-9.62,-0.02,-0.02,-0.02,0.03,11.41,0.01,NONE
126090,0,-2,35,-36,1555,0,0,0,1,5.05,-3.10,-9.69,-0.00,0.01,-0.02,0.02,11.36,-0.01,NONE
126294,0,-2,36,-37,1554,0,0,0,1,5.10,-3.04,-9.67,-0.02,0.02,-0.03,0.05,11.35,0.02,NONE
126498,0,-2,35,-38,1555,0,0,0,1,5.12,-3.12,-9.66,-0.03,0.01,-0.03,0.04,11.37,-0.00,NONE
126702,0,-1,35,-40,1553,0,0,0,1,5.15,-3.16,-9.66,0.01,-0.00,-0.01,0.01,11.39,-0.03,NONE
126906,0,0,36,-41,1552,0,0,0,1,5.08,-3.16,-9.64,-0.01,0.02,-0.03,0.03,11.34,0.02,NONE
127110,0,-1,36,-42,1551,0,0,0,1,5.14,-3.20,-9.68,0.00,0.00,-0.02,0.02,11.42,-0.01,NONE
127314,0,0,36,-43,1550,0,0,0,1,5.11,-3.16,-9.59,-0.01,-0.00,-0.01,0.02,11.31,-0.00,NONE
127518,0,-1,37,-48,1545,0,0,0,1,5.09,-3.15,-9.58,-0.01,-0.02,-0.01,0.02,11.30,0.01,NONE
127722,0,0,56,-52,1543,0,0,0,1,5.01,-3.17,-9.58,-0.02,0.00,-0.02,0.03,11.26,0.00,NONE
127926,0,0,50,-50,1544,0,0,0,1,5.16,-3.18,-9.57,-0.02,0.01,-0.03,0.04,11.33,0.01,NONE
128130,0,0,46,-50,1543,0,0,0,1,5.08,-3.14,-9.61,-0.01,0.01,-0.02,0.02,11.31,-0.02,NONE
128334,0,0,44,-50,1544,0,0,0,1,5.11,-3.23,-9.56,-0.02,-0.01,-0.01,0.03,11.31,0.01,NONE
128538,0,-1,41,-50,1545,0,0,0,1,5.04,-3.19,-9.62,0.01,0.00,-0.03,0.03,11.33,0.01,NONE
128742,0,-1,39,-50,1552,0,0,0,1,5.05,-3.21,-9.53,-0.02,0.01,-0.03,0.04,11.25,0.00,NONE
128946,0,0,38,-51,1551,0,0,0,1,4.94,-3.20,-9.56,-0.02,0.00,-0.03,0.04,11.23,-0.00,NONE
129150,0,0,40,-54,1548,0,0,0,1,5.21,-3.22,-9.59,-0.01,0.00,-0.02,0.02,11.38,-0.01,NONE
129354,0,0,41,-55,1547,0,0,0,1,5.02,-3.20,-9.56,-0.03,-0.00,-0.02,0.04,11.26,0.02,NONE
129558,0,1,40,-58,1545,0,0,0,1,5.05,-3.19,-9.60,-0.02,0.00,-0.02,0.03,11.30,-0.01,NONE
129762,0,1,40,-61,1543,0,0,0,1,5.05,-3.20,-9.62,-0.03,-0.01,-0.02,0.03,11.32,0.00,NONE
129966,0,1,39,-64,1542,0,0,0,1,5.04,-3.13,-9.61,-0.03,0.00,-0.02,0.03,11.29,-0.00,NONE
130170,0,1,39,-67,1542,0,0,0,1,5.03,-3.17,-9.60,-0.01,0.01,-0.02,0.03,11.29,-0.00,NONE
130374,0,6,41,-71,1541,0,0,0,1,5.12,-3.21,-9.56,-0.02,-0.00,-0.02,0.03,11.31,0.00,NONE
130578,0,5,40,-73,1540,0,0,0,1,5.05,-3.15,-9.58,-0.03,-0.01,-0.02,0.03,11.28,0.00,NONE
130782,0,4,39,-75,1540,0,0,0,1,5.08,-3.18,-9.57,-0.02,-0.00,-0.02,0.03,11.29,-0.01,NONE
130986,0,4,39,-77,1540,0,0,0,1,5.04,-3.17,-9.60,-0.02,-0.00,-0.02,0.03,11.30,0.00,NONE
131190,0,4,41,-82,1538,0,0,0,1,5.04,-3.12,-9.62,-0.02,-0.01,-0.02,0.03,11.30,0.01,NONE
131394,0,3,35,-86,1536,0,0,0,1,4.99,-3.14,-9.66,-0.01,-0.00,-0.03,0.03,11.32,-0.00,NONE
131598,0,7,39,-89,1533,0,0,0,1,4.99,-3.12,-9.63,-0.03,-0.01,-0.02,0.04,11.29,0.01,NONE
131802,0,7,38,-91,1534,0,0,0,1,5.03,-3.16,-9.61,-0.02,0.00,-0.02,0.03,11.30,-0.00,NONE
132006,0,5,37,-91,1535,0,0,0,1,5.04,-3.17,-9.66,-0.02,0.00,-0.02,0.03,11.35,-0.00,NONE
132210,0,4,38,-92,1535,0,0,0,1,5.09,-3.13,-9.59,-0.02,0.00,-0.02,0.03,11.31,0.00,NONE
132414,0,4,36,-92,1535,0,0,0,1,4.99,-3.13,-9.65,-0.02,0.00,-0.02,0.03,11.31,-0.00,NONE
132618,0,8,39,-93,1532,0,0,0,1,5.08,-3.13,-9.57,-0.02,0.01,-0.02,0.03,11.28,0.00,NONE
132822,0,7,38,-93,1528,0,0,0,1,5.14,-3.18,-9.61,-0.01,-0.00,-0.01,0.02,11.35,-0.01,NONE
133026,0,6,38,-95,1528,0,0,0,1,4.97,-3.15,-9.64,-0.02,-0.01,-0.02,0.03,11.29,0.01,NONE
133230,0,5,40,-97,1530,0,0,0,1,5.08,-3.22,-9.57,-0.01,-0.00,-0.01,0.02,11.31,-0.01,NONE
133434,0,4,41,-99,1531,0,0,0,1,5.04,-3.19,-9.61,-0.02,-0.00,-0.02,0.03,11.32,0.01,NONE
133638,0,3,43,-100,1533,0,0,0,1,5.08,-3.22,-9.58,-0.01,-0.00,-0.02,0.02,11.31,-0.01,NONE
133842,0,3,45,-106,1527,0,0,0,1,4.99,-3.18,-9.60,-0.02,0.00,-0.02,0.03,11.28,0.01,NONE
134046,0,3,46,-111,1529,0,0,0,1,5.05,-3.23,-9.56,-0.00,0.01,-0.02,0.02,11.28,-0.00,NONE
134250,0,3,46,-109,1530,0,0,0,1,5.08,-3.20,-9.56,-0.02,-0.00,-0.02,0.03,11.29,0.01,NONE
134454,0,4,49,-113,1529,0,0,0,1,5.06,-3.22,-9.56,-0.02,-0.01,-0.02,0.03,11.28,-0.00,NONE
134658,0,3,49,-110,1529,0,0,0,1,5.14,-3.23,-9.55,-0.01,0.01,-0.03,0.03,11.32,0.00,NONE
134862,0,3,49,-108,1530,0,0,0,1,5.06,-3.23,-9.59,-0.03,-0.00,-0.02,0.04,11.32,0.01,NONE
135066,0,3,49,-107,1531,0,0,0,1,5.09,-3.24,-9.59,-0.03,0.01,-0.03,0.05,11.33,0.01,NONE
135270,0,3,49,-105,1532,0,0,0,1,5.09,-3.25,-9.54,-0.02,-0.01,-0.02,0.02,11.29,-0.02,NONE
135474,0,3,49,-104,1532,0,0,0,1,5.05,-3.18,-9.62,-0.02,0.00,-0.02,0.02,11.32,0.00,NONE
135678,0,2,48,-103,1533,0,0,0,1,5.05,-3.26,-9.57,-0.04,0.02,-0.04,0.05,11.30,0.03,NONE
135882,0,2,47,-102,1534,0,0,0,1,5.03,-3.23,-9.60,-0.01,0.00,-0.01,0.02,11.31,-0.04,NONE
136086,0,3,47,-103,1535,0,0,0,1,4.94,-3.30,-9.59,0.04,0.02,0.02,0.04,11.28,0.03,NONE
136290,0,3,45,-103,1535,0,0,0,1,5.11,-3.45,-9.66,0.07,-0.02,0.07,0.10,11.46,0.05,NONE
136494,0,7,45,-108,1535,0,0,0,1,4.36,-3.85,-9.10,0.19,-0.02,0.10,0.22,10.80,0.12,NONE
136698,0,10,45,-112,1534,0,0,0,1,5.14,-3.79,-9.66,-0.06,0.02,-0.07,0.10,11.57,-0.12,NONE
136902,0,8,55,-115,1535,0,0,0,1,4.88,-3.82,-9.53,-0.05,0.01,-0.06,0.08,11.37,-0.02,NONE
137106,0,10,53,-118,1535,0,0,0,1,4.98,-3.77,-9.47,-0.03,0.03,-0.06,0.07,11.34,-0.00,NONE
137310,0,8,53,-110,1534,0,0,0,1,4.87,-3.73,-9.45,-0.02,0.03,-0.05,0.06,11.27,-0.02,NONE
137514,0,11,49,-114,1534,0,0,0,1,4.91,-3.73,-9.32,0.00,0.01,-0.01,0.02,11.17,-0.04,NONE
137718,0,13,48,-117,1532,0,0,0,1,4.70,-3.69,-9.37,0.01,-0.00,0.01,0.01,11.12,-0.00,NONE
137922,0,11,44,-119,1533,0,0,0,1,5.01,-3.79,-9.41,-0.03,-0.01,-0.03,0.04,11.32,0.03,NONE
138126,0,13,42,-120,1532,0,0,0,1,4.91,-3.76,-9.41,0.01,-0.01,-0.01,0.02,11.26,-0.02,NONE
138330,0,12,41,-121,1532,0,0,0,1,5.04,-3.73,-9.46,0.01,0.02,-0.01,0.02,11.36,0.01,NONE
138534,0,13,44,-122,1531,0,0,0,1,5.27,-3.76,-9.48,0.00,-0.01,-0.01,0.02,11.48,-0.01,NONE
138738,0,15,41,-123,1532,0,0,0,1,5.01,-3.72,-9.42,-0.01,0.02,-0.04,0.04,11.30,0.03,NONE
138942,0,16,41,-123,1530,0,0,0,1,4.97,-3.68,-9.46,-0.03,0.01,-0.04,0.05,11.30,0.00,NONE
139146,0,16,39,-124,1531,0,0,0,1,5.00,-3.68,-9.45,-0.04,-0.01,-0.02,0.05,11.31,0.00,NONE
139350,0,13,40,-127,1532,0,0,0,1,5.04,-3.74,-9.45,-0.01,0.00,-0.03,0.03,11.35,-0.01,NONE
139554,0,14,39,-126,1533,0,0,0,1,4.92,-3.69,-9.50,-0.02,0.02,-0.03,0.04,11.32,0.01,NONE
139758,0,15,38,-126,1534,0,0,0,1,5.00,-3.71,-9.40,-0.03,0.01,-0.04,0.05,11.28,0.01,NONE
139962,0,16,37,-125,1535,0,0,0,1,4.95,-3.66,-9.45,-0.04,0.02,-0.04,0.06,11.28,0.01,NONE
140166,0,17,36,-125,1553,0,0,0,1,4.88,-3.74,-9.36,-0.02,-0.00,-0.02,0.03,11.20,-0.03,NONE
140370,0,17,36,-125,1547,0,0,0,1,4.95,-3.77,-9.35,-0.02,0.00,-0.03,0.03,11.23,0.00,NONE
140574,0,14,35,-118,1545,0,0,0,1,5.11,-3.77,-9.46,0.04,-0.06,0.03,0.08,11.40,0.05,NONE
140778,0,8,35,-96,1544,0,0,0,1,4.63,-3.86,-9.33,-0.05,0.03,-0.05,0.08,11.11,-0.00,NONE
140982,0,-1,30,-56,1548,0,0,0,1,4.87,-3.99,-9.50,-0.04,-0.07,0.08,0.11,11.39,0.04,NONE
141186,0,-10,22,-21,1559,0,0,0,1,4.82,-3.86,-9.52,-0.06,-0.10,0.02,0.12,11.35,0.01,NONE
141390,0,-19,9,3,1566,0,0,0,1,4.65,-3.90,-9.42,-0.02,-0.05,-0.03,0.06,11.20,-0.06,NONE
141594,0,-23,3,26,1573,0,0,0,1,4.66,-3.92,-9.52,0.07,-0.03,0.03,0.09,11.30,0.02,NONE
141798,0,-25,3,40,1577,0,0,0,1,4.78,-3.96,-9.52,0.02,0.05,0.02,0.06,11.36,-0.03,NONE
142002,0,-26,0,51,1580,0,0,0,1,4.56,-4.07,-9.30,-0.03,-0.01,0.00,0.03,11.13,-0.03,NONE
142206,0,-30,0,57,1581,0,0,0,1,4.81,-4.09,-9.48,-0.04,0.02,-0.04,0.06,11.39,0.03,NONE
142410,0,-29,-1,61,1582,0,0,0,1,4.58,-4.01,-9.39,0.01,-0.02,-0.00,0.02,11.20,-0.04,NONE
142614,0,-28,-1,62,1582,0,0,0,1,4.56,-3.96,-9.47,-0.01,-0.08,0.01,0.08,11.23,0.06,NONE
142818,0,-28,-13,59,1578,0,0,0,1,4.68,-3.95,-9.40,-0.05,0.01,-0.04,0.07,11.22,-0.02,NONE
143022,0,-27,-10,58,1578,0,0,0,1,4.70,-3.95,-9.38,0.00,-0.01,0.00,0.01,11.21,-0.06,NONE
143226,0,-28,-10,57,1578,0,0,0,1,4.81,-4.02,-9.36,0.01,-0.00,-0.01,0.01,11.27,0.01,NONE
143430,0,-25,4,55,1577,0,0,0,1,4.61,-3.98,-9.40,-0.01,0.00,-0.04,0.04,11.21,0.02,NONE
143634,0,-24,2,54,1577,0,0,0,1,4.75,-4.04,-9.49,-0.04,0.00,-0.03,0.05,11.35,0.01,NONE
143838,0,-22,2,52,1585,0,0,0,1,4.83,-4.12,-9.41,-0.04,-0.00,-0.03,0.05,11.35,0.00,NONE
144042,0,-23,1,52,1583,0,0,0,1,4.75,-4.00,-9.47,-0.04,-0.00,-0.05,0.07,11.33,0.02,NONE
144246,0,-22,1,52,1580,0,0,0,1,4.56,-3.94,-9.33,-0.07,0.04,-0.08,0.12,11.11,0.05,NONE
144450,0,-22,0,52,1579,0,0,0,1,4.44,-3.97,-9.32,-0.06,0.02,-0.06,0.09,11.06,-0.03,NONE
144654,0,-22,-1,52,1572,0,0,0,1,4.54,-3.98,-9.27,-0.06,-0.00,-0.05,0.07,11.06,-0.01,NONE
144858,0,-22,-2,52,1566,0,0,0,1,4.47,-3.96,-9.21,-0.02,0.04,-0.03,0.05,10.97,-0.02,NONE
145062,0,-23,0,52,1560,0,0,0,1,4.80,-3.69,-9.35,0.04,-0.04,0.01,0.05,11.14,0.00,NONE
145266,0,-22,0,52,1554,0,0,0,1,4.57,-3.97,-9.38,0.02,-0.04,0.01,0.05,11.16,-0.01,NONE
145470,0,-31,5,52,1551,0,0,0,1,4.59,-3.94,-9.47,0.01,0.06,-0.02,0.06,11.24,0.02,NONE
145674,0,-29,3,52,1549,0,0,0,1,4.72,-4.22,-9.46,0.04,0.09,-0.02,0.10,11.38,0.04,NONE
145878,0,-28,2,52,1547,0,0,0,1,4.45,-3.98,-9.37,-0.15,-0.20,0.15,0.29,11.11,0.19,NONE
146082,0,-26,0,51,1547,0,0,0,1,3.83,-3.95,-9.72,-0.09,-0.01,0.01,0.09,11.17,-0.20,NONE
146286,0,-25,13,39,1549,0,0,0,1,4.00,-4.30,-9.85,0.28,-0.28,0.29,0.49,11.47,0.40,NONE
146490,0,-23,7,23,1551,0,0,0,1,3.91,-4.46,-9.52,0.05,-0.08,0.09,0.13,11.22,-0.36,NONE
146694,0,-22,1,4,1540,0,0,0,1,4.15,-4.60,-9.61,-0.04,-0.02,-0.09,0.10,11.43,-0.02,NONE
146898,0,-22,-2,-10,1545,0,0,0,1,3.49,-4.32,-9.40,0.00,0.00,-0.03,0.03,10.92,-0.08,NONE
147102,0,-19,2,-22,1547,0,0,0,1,4.24,-4.54,-9.60,-0.09,-0.09,-0.03,0.13,11.43,0.10,NONE
147306,0,-21,-2,-27,1550,0,0,0,1,3.62,-4.36,-9.64,-0.01,-0.07,-0.02,0.07,11.18,-0.05,NONE
147510,0,-22,-6,-29,1552,0,0,0,1,3.66,-4.83,-10.12,0.23,-0.55,0.40,0.72,11.80,0.65,NONE
147714,0,-26,-10,-30,1561,0,0,0,1,3.14,-4.89,-9.74,0.07,-0.19,0.33,0.39,11.34,-0.33,NONE
147918,0,-29,-14,-29,1561,0,0,0,1,1.76,-4.83,-9.32,0.14,0.08,-0.14,0.22,10.65,-0.17,NONE
148122,0,-28,-18,-29,1560,0,0,0,1,2.71,-5.24,-9.66,-0.08,0.15,-0.19,0.25,11.32,0.04,NONE
148326,0,-31,-21,-26,1561,0,0,0,1,3.32,-5.27,-9.13,-0.10,0.03,-0.06,0.12,11.06,-0.14,NONE
148530,0,-31,-22,-26,1559,0,0,0,1,2.77,-5.30,-9.41,0.09,0.06,-0.13,0.17,11.15,0.05,NONE
148734,0,-26,-24,-23,1561,0,0,0,1,3.15,-4.98,-9.92,-0.10,0.06,-0.09,0.15,11.53,-0.02,NONE
148938,0,-29,-25,-21,1560,0,0,0,1,2.96,-5.30,-9.20,0.11,0.04,-0.02,0.12,11.02,-0.03,NONE
149142,0,-32,-27,-19,1559,0,0,0,1,3.40,-5.20,-9.67,-0.08,-0.01,-0.08,0.12,11.50,-0.00,NONE
149346,0,-36,-27,-17,1557,0,0,0,1,3.02,-5.21,-9.48,0.04,-0.04,0.01,0.06,11.23,-0.06,NONE
149550,0,-36,-28,-15,1557,0,0,0,1,3.00,-5.19,-9.53,-0.06,-0.02,-0.04,0.07,11.25,0.01,NONE
149754,0,-37,-29,-14,1557,0,0,0,1,3.80,-5.53,-9.13,-0.04,0.07,-0.16,0.18,11.33,0.11,NONE
149958,0,-36,-28,-14,1556,0,0,0,1,3.26,-5.32,-9.57,0.08,-0.03,-0.01,0.08,11.43,-0.10,NONE
150162,0,-34,-29,-16,1559,0,0,0,1,2.96,-5.35,-9.28,0.05,0.00,-0.02,0.06,11.11,-0.02,NONE
150366,0,-34,-28,-22,1559,0,0,0,1,3.27,-5.41,-9.35,-0.05,0.01,-0.09,0.10,11.29,0.04,NONE
150570,0,-33,-29,-22,1562,0,0,0,1,2.97,-5.40,-9.16,0.09,0.04,0.01,0.10,11.04,0.00,NONE
150774,0,-35,-29,-23,1564,0,0,0,1,3.62,-5.26,-9.35,-0.03,0.02,0.17,0.18,11.32,0.07,NONE
150978,0,-35,-25,-24,1565,0,0,0,1,3.34,-5.24,-9.11,-0.03,0.02,-0.08,0.09,11.03,-0.09,NONE
151182,0,-37,-22,-33,1566,0,0,0,1,3.04,-5.54,-8.83,-0.06,0.17,-0.07,0.19,10.86,0.10,NONE
151386,0,-38,-14,-36,1560,0,0,0,1,2.49,-5.37,-9.24,0.07,-0.39,0.21,0.45,10.97,0.26,NONE
151590,0,-35,0,-50,1545,0,0,0,1,2.38,-6.12,-9.20,0.21,-0.27,0.49,0.60,11.30,0.15,NONE
151794,0,-26,8,-75,1534,0,0,0,1,1.74,-6.41,-9.23,0.04,0.06,0.01,0.08,11.37,-0.52,NONE
151998,0,-20,13,-91,1526,0,0,0,1,1.25,-6.23,-9.22,-0.10,-0.01,-0.01,0.10,11.20,0.02,NONE
152202,0,-15,17,-101,1521,0,0,0,1,1.81,-6.17,-9.31,-0.09,0.07,-0.13,0.17,11.31,0.07,NONE
152406,0,-11,19,-108,1518,0,0,0,1,1.62,-6.16,-9.06,-0.03,-0.01,-0.03,0.05,11.07,-0.13,NONE
152610,0,-10,20,-112,1515,0,0,0,1,1.86,-6.25,-9.04,0.03,0.24,-0.17,0.30,11.14,0.25,NONE
152814,0,-9,20,-115,1513,0,0,0,1,2.25,-6.08,-9.05,-0.01,0.14,-0.12,0.19,11.13,-0.11,NONE
153018,0,-7,21,-117,1512,0,0,0,1,2.50,-5.93,-9.10,0.05,0.03,-0.03,0.07,11.14,-0.12,NONE
153222,0,-8,20,-114,1513,0,0,0,1,2.58,-6.06,-9.07,-0.06,-0.02,0.03,0.07,11.21,0.00,NONE
153426,0,-8,21,-112,1513,0,0,0,1,2.65,-6.10,-9.10,0.02,0.04,-0.07,0.09,11.27,0.02,NONE
153630,0,-8,24,-115,1512,0,0,0,1,2.63,-5.94,-8.91,0.03,0.04,-0.03,0.06,11.03,-0.03,NONE
153834,0,-8,22,-112,1511,0,0,0,1,2.90,-6.14,-8.90,-0.03,0.01,-0.04,0.05,11.19,-0.01,NONE
154038,0,-15,15,-109,1514,0,0,0,1,2.66,-6.07,-8.76,-0.03,0.00,-0.10,0.11,10.98,0.06,NONE
154242,0,-13,14,-107,1515,0,0,0,1,2.76,-6.05,-8.97,0.00,-0.04,0.05,0.06,11.17,-0.05,NONE
154446,0,-12,14,-104,1516,0,0,0,1,2.69,-6.09,-8.91,-0.08,0.03,-0.07,0.12,11.12,0.05,NONE
154650,0,-12,14,-103,1517,0,0,0,1,2.75,-6.08,-8.92,0.01,-0.01,0.00,0.01,11.14,-0.11,NONE
154854,0,-10,15,-103,1518,0,0,0,1,2.65,-6.17,-8.96,0.00,-0.03,0.04,0.05,11.19,0.04,NONE
155058,0,-8,16,-103,1518,0,0,0,1,2.57,-6.20,-8.72,-0.04,0.01,-0.01,0.05,11.00,-0.00,NONE
155262,0,-5,18,-108,1516,0,0,0,1,2.62,-6.25,-8.90,0.11,-0.01,0.02,0.11,11.19,0.06,NONE
155466,0,-3,17,-112,1517,0,0,0,1,2.57,-6.28,-9.07,0.04,-0.03,0.03,0.06,11.33,-0.05,NONE
155670,0,-3,18,-115,1518,0,0,0,1,2.82,-6.32,-8.99,-0.04,0.03,-0.04,0.07,11.35,0.01,NONE
155874,0,2,19,-118,1518,0,0,0,1,2.29,-6.10,-8.84,-0.05,0.01,-0.09,0.10,10.98,0.04,NONE
156078,0,6,20,-119,1516,0,0,0,1,2.51,-6.21,-8.91,-0.03,0.01,-0.03,0.05,11.15,-0.06,NONE
156282,0,5,19,-121,1517,0,0,0,1,2.64,-6.30,-8.88,-0.03,0.01,-0.02,0.04,11.21,-0.01,NONE
156486,0,9,17,-122,1518,0,0,0,1,2.75,-6.30,-8.88,-0.03,-0.00,-0.02,0.04,11.23,0.00,NONE
156690,0,11,17,-122,1519,0,0,0,1,2.53,-6.24,-8.89,-0.05,0.02,-0.06,0.08,11.15,0.04,NONE
156894,0,13,18,-124,1517,0,0,0,1,2.49,-6.16,-8.74,-0.02,0.01,0.02,0.03,10.98,-0.05,NONE
157098,0,12,17,-124,1518,0,0,0,1,2.65,-6.37,-8.89,0.01,-0.00,-0.00,0.01,11.26,-0.02,NONE
157302,0,13,17,-124,1519,0,0,0,1,2.53,-6.23,-8.80,-0.04,-0.01,-0.03,0.05,11.07,0.04,NONE
157506,0,15,16,-124,1520,0,0,0,1,2.43,-6.24,-8.74,0.00,-0.01,0.00,0.01,11.01,-0.04,NONE
157710,0,12,15,-124,1521,0,0,0,1,2.42,-6.21,-8.79,0.02,-0.01,-0.00,0.02,11.03,0.01,NONE
157914,0,11,14,-124,1522,0,0,0,1,2.67,-6.34,-8.94,0.01,-0.00,0.00,0.01,11.28,-0.01,NONE
158118,0,13,14,-124,1521,0,0,0,1,2.34,-6.29,-8.71,-0.01,0.04,-0.05,0.06,11.00,0.05,NONE
158322,0,14,15,-124,1525,0,0,0,1,2.51,-6.32,-8.80,-0.02,-0.01,-0.02,0.03,11.12,-0.03,NONE
158526,0,15,15,-124,1524,0,0,0,1,2.56,-6.38,-8.86,-0.03,0.00,-0.03,0.04,11.21,0.01,NONE
158730,0,19,14,-124,1524,0,0,0,1,2.42,-6.26,-8.70,-0.00,0.01,-0.01,0.02,10.98,-0.03,NONE
158934,0,15,14,-124,1523,0,0,0,1,2.43,-6.34,-8.68,0.06,-0.03,0.12,0.14,11.02,0.12,NONE
159138,0,16,15,-124,1523,0,0,0,1,2.50,-6.43,-8.76,-0.03,0.03,-0.10,0.11,11.15,-0.03,NONE
159342,0,16,19,-124,1520,0,0,0,1,2.41,-6.15,-8.69,-0.01,0.01,-0.02,0.03,10.91,-0.08,NONE
159546,0,13,19,-124,1519,0,0,0,1,2.55,-6.21,-8.79,0.01,-0.00,0.01,0.02,11.06,-0.01,NONE
159750,0,15,21,-124,1519,0,0,0,1,2.69,-6.35,-8.93,-0.02,0.01,-0.01,0.02,11.29,0.01,NONE
159954,0,16,23,-124,1518,0,0,0,1,2.75,-6.45,-8.82,-0.01,0.02,-0.06,0.06,11.27,0.04,NONE
160158,0,13,24,-124,1517,0,0,0,1,2.49,-6.34,-8.64,-0.04,0.00,-0.04,0.05,11.00,-0.01,NONE
160362,0,14,22,-124,1517,0,0,0,1,2.63,-6.41,-8.76,-0.05,-0.01,-0.01,0.05,11.17,-0.00,NONE
160566,0,15,23,-125,1515,0,0,0,1,2.57,-6.26,-8.65,-0.02,0.02,-0.02,0.04,10.98,-0.01,NONE
160770,0,16,23,-125,1516,0,0,0,1,2.66,-6.39,-8.78,-0.01,0.01,-0.03,0.03,11.18,-0.00,NONE
160974,0,14,23,-125,1517,0,0,0,1,2.72,-6.47,-8.71,-0.01,-0.00,-0.01,0.01,11.19,-0.02,NONE
161178,0,15,24,-125,1518,0,0,0,1,2.81,-6.53,-8.81,-0.01,0.01,-0.05,0.05,11.32,0.04,NONE
161382,0,16,30,-117,1523,0,0,0,1,2.65,-6.38,-8.61,-0.04,0.01,-0.06,0.07,11.04,0.02,NONE
161586,0,25,27,-119,1522,0,0,0,1,2.40,-6.34,-8.47,-0.01,0.02,-0.05,0.06,10.85,-0.01,NONE
161790,0,7,26,-120,1520,0,0,0,1,2.44,-6.40,-8.62,0.01,-0.02,0.01,0.03,11.01,-0.03,NONE
161994,0,10,26,-121,1519,0,0,0,1,2.78,-6.43,-8.84,-0.00,-0.02,0.03,0.03,11.28,0.00,NONE
162198,0,12,31,-128,1518,0,0,0,1,2.84,-6.50,-8.85,-0.06,0.02,-0.06,0.09,11.34,0.06,NONE
162402,0,11,31,-127,1517,0,0,0,1,2.42,-6.37,-8.52,-0.01,0.01,-0.06,0.06,10.91,-0.03,NONE
162606,0,10,31,-127,1517,0,0,0,1,2.46,-6.38,-8.65,0.01,-0.01,0.03,0.03,11.03,-0.03,NONE
162810,0,12,30,-126,1516,0,0,0,1,2.78,-6.50,-8.70,-0.02,0.01,-0.03,0.04,11.21,0.00,NONE
163014,0,11,29,-126,1516,0,0,0,1,2.54,-6.40,-8.59,-0.06,0.02,-0.07,0.09,11.01,0.06,NONE
163218,0,13,29,-125,1516,0,0,0,1,2.55,-6.36,-8.70,-0.00,-0.01,-0.02,0.03,11.07,-0.07,NONE
163422,0,11,29,-125,1515,0,0,0,1,2.63,-6.41,-8.74,0.00,-0.01,-0.02,0.02,11.15,-0.00,NONE
163626,0,13,29,-129,1513,0,0,0,1,2.68,-6.53,-8.73,-0.01,-0.01,-0.03,0.03,11.23,0.01,NONE
163830,0,11,28,-128,1514,0,0,0,1,2.59,-6.42,-8.63,-0.04,-0.00,-0.07,0.08,11.06,0.05,NONE
164034,0,13,21,-130,1515,0,0,0,1,2.79,-6.41,-8.52,0.05,0.07,-0.05,0.10,11.02,0.02,NONE
164238,0,0,24,-120,1517,0,0,0,1,2.55,-6.24,-8.62,-0.21,0.07,-0.36,0.42,10.95,0.32,NONE
164442,0,0,27,-113,1519,0,0,0,1,2.99,-6.15,-8.76,-0.01,0.00,-0.00,0.01,11.11,-0.41,NONE
164646,0,-1,28,-105,1524,0,0,0,1,3.18,-6.31,-8.65,-0.01,0.00,-0.00,0.01,11.17,0.00,NONE
164850,0,-1,31,-101,1523,0,0,0,1,3.12,-6.36,-8.81,-0.01,0.01,-0.05,0.05,11.30,0.04,NONE
165054,0,-2,31,-96,1525,0,0,0,1,3.02,-6.23,-8.71,-0.02,0.01,-0.02,0.03,11.13,-0.02,NONE
165258,0,-4,30,-92,1527,0,0,0,1,2.93,-6.26,-8.59,-0.06,0.00,-0.06,0.09,11.03,0.06,NONE
165462,0,-5,29,-88,1528,0,0,0,1,3.05,-6.25,-8.66,-0.02,-0.01,-0.00,0.03,11.11,-0.06,NONE
165666,0,-4,33,-89,1526,0,0,0,1,3.24,-6.22,-8.92,-0.03,-0.00,-0.01,0.03,11.35,0.01,NONE
165870,0,-5,32,-87,1526,0,0,0,1,3.28,-6.33,-8.78,-0.02,0.01,-0.05,0.06,11.31,0.03,NONE
166074,0,-5,32,-86,1527,0,0,0,1,2.84,-6.19,-8.45,-0.05,0.02,-0.06,0.08,10.85,0.02,NONE
166278,0,-5,32,-85,1527,0,0,0,1,2.88,-6.22,-8.55,0.02,-0.02,0.02,0.03,10.96,-0.05,NONE
166482,0,-4,32,-84,1526,0,0,0,1,3.08,-6.28,-8.70,0.02,-0.01,0.00,0.02,11.16,-0.01,NONE
166686,0,-5,31,-83,1528,0,0,0,1,3.14,-6.26,-8.72,-0.02,0.01,-0.03,0.03,11.18,0.01,NONE
166890,0,-5,31,-84,1525,0,0,0,1,3.12,-6.28,-8.58,0.00,0.02,-0.06,0.06,11.08,0.03,NONE
167094,0,-7,26,-82,1527,0,0,0,1,3.02,-6.27,-8.60,-0.02,0.00,-0.06,0.06,11.06,0.00,NONE
167298,0,-5,28,-83,1526,0,0,0,1,2.96,-6.19,-8.48,-0.02,0.01,-0.05,0.05,10.91,-0.01,NONE
167502,0,-7,28,-82,1526,0,0,0,1,3.13,-6.22,-8.58,0.00,-0.01,-0.01,0.01,11.05,-0.04,NONE
167706,0,-9,26,-83,1526,0,0,0,1,3.14,-6.25,-8.83,0.00,-0.01,-0.00,0.01,11.26,-0.01,NONE
167910,0,-5,24,-82,1526,0,0,0,1,3.22,-6.33,-8.77,-0.03,0.01,-0.02,0.04,11.28,0.03,NONE
168114,0,-6,24,-82,1527,0,0,0,1,3.16,-6.36,-8.69,-0.06,0.02,-0.07,0.09,11.22,0.05,NONE
168318,0,-6,24,-82,1527,0,0,0,1,3.04,-6.38,-8.54,-0.04,0.01,-0.05,0.07,11.09,-0.03,NONE
168522,0,-7,24,-80,1527,0,0,0,1,3.00,-6.22,-8.50,0.00,-0.00,-0.04,0.04,10.95,-0.03,NONE
168726,0,-8,24,-80,1529,0,0,0,1,2.95,-6.24,-8.49,-0.03,-0.01,-0.01,0.03,10.94,-0.01,NONE
168930,0,-8,24,-80,1529,0,0,0,1,3.16,-6.26,-8.59,0.00,0.01,0.01,0.01,11.08,-0.01,NONE
169134,0,-9,25,-81,1528,0,0,0,1,3.47,-6.35,-8.79,-0.06,-0.02,-0.02,0.07,11.38,0.05,NONE
169338,0,-10,27,-80,1528,0,0,0,1,3.22,-6.30,-8.53,-0.06,0.03,-0.08,0.10,11.08,0.04,NONE
169542,0,-10,29,-80,1528,0,0,0,1,2.99,-6.23,-8.58,-0.00,0.01,-0.03,0.03,11.01,-0.07,NONE
169746,0,-10,31,-80,1528,0,0,0,1,3.25,-6.20,-8.67,0.04,0.01,-0.00,0.04,11.15,0.01,NONE
169950,0,-10,32,-80,1529,0,0,0,1,3.29,-6.26,-8.71,0.00,-0.00,0.01,0.01,11.21,-0.03,NONE
170154,0,-10,32,-81,1529,0,0,0,1,3.13,-6.29,-8.48,-0.04,-0.01,-0.04,0.06,11.01,0.05,NONE
170358,0,-8,33,-83,1526,0,0,0,1,3.08,-6.27,-8.54,0.02,-0.02,-0.00,0.02,11.03,-0.04,NONE
170562,0,-9,32,-83,1527,0,0,0,1,3.01,-6.28,-8.52,-0.00,-0.01,0.00,0.01,11.00,-0.02,NONE
170766,0,-8,33,-84,1527,0,0,0,1,3.23,-6.40,-8.64,0.00,-0.00,-0.01,0.01,11.23,0.00,NONE
170970,0,-15,36,-83,1529,0,0,0,1,3.16,-6.37,-8.55,-0.02,0.00,-0.03,0.03,11.12,0.02,NONE
171174,0,-12,35,-85,1530,0,0,0,1,3.05,-6.35,-8.59,-0.04,0.01,-0.04,0.06,11.11,0.02,NONE
171378,0,-11,35,-84,1529,0,0,0,1,3.17,-6.02,-8.33,0.06,0.02,-0.07,0.09,10.76,0.04,NONE
171582,0,-10,34,-84,1530,0,0,0,1,3.61,-6.05,-8.88,0.03,-0.01,0.01,0.03,11.34,-0.07,NONE
171786,0,-11,37,-79,1530,0,0,0,1,3.14,-6.15,-8.68,-0.00,-0.01,-0.02,0.02,11.09,-0.01,NONE
171990,0,-12,36,-80,1530,0,0,0,1,3.60,-6.47,-8.40,0.04,0.05,-0.03,0.07,11.19,0.05,NONE
# REC=OFF
# REC=ON
179908,0,-10,33,-91,1527,0,0,0,1,3.31,-5.91,-8.78,0.01,-0.01,0.00,0.01,11.09,-0.02,NONE
180112,0,-10,32,-90,1527,0,0,0,1,3.60,-6.02,-8.93,-0.01,-0.03,0.03,0.04,11.36,0.03,NONE
# CAL: starting (MID 5s, HIGH 5s, LOW 5s)
# CAL: Hold MID for 5s, then HIGH 5s, then LOW 5s.
# REC=OFF
# CAL,MID
# CAL,MID
# CAL,MID
# CAL,MID
# CAL,MID
# CAL,MID
# CAL,MID
# CAL,MID
# CAL,MID
# CAL,MID
# CAL,MID
# CAL,MID
# CAL,MID
# CAL,MID
# REC=ON
# REC=OFF
# CAL,MID
# CAL,MID
# CAL,MID
# CAL,MID
# CAL,MID
# CAL,MID
# CAL,MID
# CAL,MID
# REC=ON
# REC=OFF
# CAL,MID
# CAL,MID
# CAL,MID
# CAL,MID
# CAL,MID
# CAL,MID
# CAL,MID
# CAL,MID
# CAL,MID
# CAL,MID
# CAL,MID
# CAL,MID
# CAL,MID
# REC=ON
# REC=OFF
# CAL,MID
# CAL,MID
# CAL,MID
# CAL,MID
# CAL,MID
# CAL,MID
# CAL,MID
# CAL,MID
# CAL,MID
# CAL,MID
# CAL,MID
# REC=ON
# REC=OFF
# CAL,MID
# CAL,MID
# CAL,MID
# CAL,MID
# CAL,MID
# CAL,MID
# REC=ON
# REC=OFF
# CAL,HIGH
# CAL,HIGH
# CAL,HIGH
# CAL,HIGH
# CAL,HIGH
# CAL,HIGH
# REC=ON
# REC=OFF
# CAL,HIGH
# CAL,HIGH
# CAL,HIGH
# CAL,HIGH
# CAL,HIGH
# CAL,HIGH
# CAL,HIGH
# CAL,HIGH
# CAL,HIGH
# REC=ON
# REC=OFF
# CAL,HIGH
# CAL,HIGH
# CAL,HIGH
# CAL,HIGH
# CAL,HIGH
# CAL,HIGH
# CAL,HIGH
# CAL,HIGH
# CAL,HIGH
# CAL,HIGH
# CAL,HIGH
# CAL,HIGH
# CAL,HIGH
# CAL,HIGH
# CAL,HIGH
# CAL,HIGH
# REC=ON
# REC=OFF
# CAL,HIGH
# CAL,HIGH
# CAL,HIGH
# CAL,HIGH
# CAL,HIGH
# CAL,HIGH
# CAL,HIGH
# CAL,HIGH
# CAL,HIGH
# CAL,HIGH
# CAL,HIGH
# REC=ON
# REC=OFF
# CAL,HIGH
# CAL,HIGH
# CAL,HIGH
# CAL,HIGH
# CAL,HIGH
# CAL,HIGH
# REC=ON
# REC=OFF
# CAL,LOW
# CAL,LOW
# CAL,LOW
# CAL,LOW
# CAL,LOW
# CAL,LOW
# REC=ON
# REC=OFF
# CAL,LOW
# CAL,LOW
# CAL,LOW
# CAL,LOW
# REC=ON
195368,0,-8,46,-95,1521,0,0,0,1,3.56,-5.67,-8.95,0.02,-0.03,0.04,0.06,11.18,0.01,NONE
195572,0,-9,45,-95,1522,0,0,0,1,3.79,-5.83,-9.02,0.01,-0.04,0.05,0.06,11.39,0.00,NONE
195776,0,-10,44,-95,1522,0,0,0,1,3.78,-5.91,-8.93,-0.03,-0.00,-0.04,0.05,11.35,-0.01,NONE
195980,0,-10,44,-94,1523,0,0,0,1,3.69,-5.86,-8.91,-0.05,-0.00,-0.06,0.08,11.29,0.03,NONE
196184,0,-10,44,-94,1524,0,0,0,1,3.38,-5.64,-8.99,0.02,0.01,-0.05,0.05,11.14,-0.02,NONE
196388,0,-10,42,-94,1524,0,0,0,1,3.47,-5.72,-8.87,-0.03,-0.01,-0.01,0.03,11.12,-0.02,NONE
196592,0,-10,43,-94,1522,0,0,0,1,3.40,-5.66,-8.91,0.03,-0.01,0.00,0.03,11.09,0.00,NONE
196796,0,-8,45,-96,1520,0,0,0,1,3.62,-5.72,-8.96,-0.01,-0.02,0.02,0.03,11.23,-0.00,NONE
197000,0,-9,44,-96,1520,0,0,0,1,3.70,-5.77,-8.95,-0.01,-0.01,0.02,0.02,11.28,-0.01,NONE
197204,0,-8,46,-97,1519,0,0,0,1,3.84,-5.87,-8.94,-0.01,0.01,-0.04,0.04,11.36,0.02,NONE
197408,0,-8,46,-96,1520,0,0,0,1,3.62,-5.74,-9.05,-0.06,0.01,-0.05,0.08,11.31,0.04,NONE
197612,0,-8,45,-96,1521,0,0,0,1,3.52,-5.70,-9.00,-0.05,0.02,-0.07,0.09,11.22,0.01,NONE
197816,0,-7,46,-98,1519,0,0,0,1,3.48,-5.76,-8.86,-0.04,-0.01,-0.04,0.06,11.13,-0.03,NONE
198020,0,-8,46,-96,1520,0,0,0,1,3.39,-5.70,-8.82,-0.03,0.01,-0.05,0.06,11.04,0.00,NONE
198224,0,-8,47,-95,1521,0,0,0,1,3.20,-5.58,-8.85,-0.02,0.00,-0.00,0.03,10.94,-0.03,NONE
198428,0,-16,52,-96,1521,0,0,0,1,3.34,-5.65,-8.93,-0.01,-0.02,0.02,0.03,11.08,0.00,NONE
198632,0,-14,50,-96,1524,0,0,0,1,3.69,-5.74,-8.99,-0.01,-0.02,0.01,0.02,11.28,-0.00,NONE
198836,0,-13,49,-94,1523,0,0,0,1,3.86,-5.85,-9.04,-0.03,-0.01,-0.02,0.04,11.44,0.02,NONE
199040,0,-13,48,-94,1524,0,0,0,1,3.84,-5.80,-9.05,-0.03,0.01,-0.05,0.06,11.41,0.02,NONE
199244,0,50,99,-213,1443,0,0,0,1,2.51,-6.03,-8.73,0.31,-0.78,0.37,0.92,10.91,0.86,NONE
199448,0,142,240,-410,1252,0,0,0,1,2.04,-6.18,-8.76,0.02,-0.16,-0.06,0.17,10.91,-0.74,NONE
199652,0,209,357,-566,1105,0,0,0,1,2.12,-6.50,-9.24,-0.09,-0.21,0.08,0.24,11.49,0.07,NONE
199856,0,257,447,-684,996,0,0,0,1,2.06,-6.37,-8.97,-0.21,0.06,-0.11,0.24,11.19,0.00,NONE
200060,0,294,511,-770,917,0,1,0,1,1.82,-6.20,-8.91,0.12,0.01,0.05,0.12,11.01,-0.12,NONE
200264,0,301,491,-780,918,0,1,0,1,1.52,-6.66,-8.40,-0.48,0.53,-0.08,0.71,10.83,0.59,NONE
200468,0,236,369,-584,1084,0,0,0,1,3.21,-6.03,-8.99,0.04,-0.01,-0.01,0.04,11.29,-0.67,NONE
200672,0,176,270,-420,1212,0,0,0,1,3.57,-6.06,-9.05,0.02,-0.00,-0.05,0.05,11.46,0.01,NONE
200876,0,129,197,-295,1312,0,0,0,1,3.39,-6.22,-9.06,0.19,-0.06,0.19,0.28,11.50,0.23,NONE
201080,0,96,232,-210,1382,0,0,0,1,2.43,-6.65,-8.42,0.23,-0.03,0.09,0.25,11.00,-0.03,NONE
201284,0,66,322,-149,1431,0,0,0,1,2.32,-6.79,-8.63,-0.05,0.05,-0.04,0.08,11.22,-0.17,NONE
201488,0,44,402,-108,1466,0,0,0,1,1.99,-6.92,-8.13,-0.03,0.02,-0.13,0.14,10.86,0.06,NONE
201692,0,28,458,-79,1491,0,1,0,1,1.97,-6.72,-8.28,-0.06,0.07,-0.12,0.15,10.85,0.02,NONE
201896,0,16,496,-58,1510,0,1,0,1,2.33,-6.75,-8.57,-0.01,0.01,0.01,0.01,11.15,-0.14,NONE
202100,0,8,433,-40,1530,0,0,0,1,1.88,-6.78,-8.37,-0.33,0.25,-0.28,0.50,10.93,0.48,NONE
202304,0,-2,318,-6,1548,0,0,0,1,3.01,-5.92,-9.76,-0.48,-0.21,0.08,0.53,11.80,0.03,NONE
202508,0,-11,230,16,1558,0,0,0,1,2.69,-5.95,-8.98,0.04,0.00,-0.00,0.04,11.11,-0.49,NONE
202712,0,-18,160,34,1555,0,0,0,1,2.10,-6.05,-9.41,0.21,-0.33,0.20,0.44,11.39,0.40,NONE
202916,0,-25,109,10,1439,0,0,0,1,2.21,-6.39,-9.08,0.37,0.10,0.17,0.42,11.32,-0.02,NONE
203120,0,-30,82,-63,1248,0,0,0,1,0.79,-6.68,-8.30,-0.08,-0.16,0.04,0.18,10.69,-0.24,NONE
203324,0,-34,64,-115,1102,0,0,0,1,1.43,-6.93,-8.60,-0.11,0.01,-0.06,0.13,11.14,-0.05,NONE
203528,0,-37,55,-154,994,0,0,0,1,1.45,-6.63,-8.56,-0.12,0.10,-0.15,0.21,10.93,0.09,NONE
203732,0,-40,48,-181,920,0,0,0,1,1.27,-6.89,-8.79,0.14,-0.16,0.31,0.37,11.24,0.16,NONE
203936,0,-44,34,-179,956,0,0,0,1,1.69,-7.80,-7.64,-0.40,0.18,-0.12,0.45,11.05,0.08,NONE
204140,0,-46,14,-128,1108,0,0,0,1,2.21,-6.49,-9.45,-0.59,-0.11,-0.23,0.65,11.67,0.19,NONE
204344,0,-50,-7,-67,1239,0,0,0,1,1.78,-5.44,-9.45,0.07,-0.17,0.13,0.22,11.05,-0.42,NONE
204548,0,-53,-25,-41,1339,0,0,0,1,1.26,-5.66,-9.68,-0.01,-0.42,0.34,0.54,11.28,0.32,NONE
204752,0,-51,-36,-201,1410,0,0,0,1,0.70,-5.91,-10.47,0.16,-0.11,0.11,0.22,12.04,-0.32,NONE
204956,0,-33,-51,-399,1454,0,0,0,1,0.68,-6.14,-9.12,0.09,-0.07,0.09,0.14,11.01,-0.08,NONE
205160,0,-23,-65,-550,1483,0,0,0,1,0.45,-6.60,-8.88,0.15,-0.31,0.13,0.37,11.08,0.22,NONE
205364,0,-5,-75,-662,1495,0,0,0,1,-0.63,-6.98,-8.72,0.01,-0.13,0.00,0.13,11.18,-0.24,NONE
205568,0,10,-83,-742,1498,0,0,0,1,-0.49,-6.85,-8.57,-0.01,-0.01,0.07,0.07,10.99,-0.06,NONE
205772,0,13,-89,-795,1500,0,0,0,1,-0.79,-6.70,-8.41,-0.16,0.36,0.03,0.39,10.78,0.33,NONE
205976,0,8,-93,-804,1504,0,0,0,1,0.92,-7.02,-8.82,-0.06,0.15,-0.09,0.18,11.30,-0.21,NONE
206180,0,-3,-97,-687,1516,0,0,0,1,0.53,-5.87,-9.50,-0.27,0.30,-0.09,0.41,11.19,0.23,NONE
206384,0,-18,-100,-487,1541,0,0,0,1,1.24,-6.22,-9.97,-0.00,0.08,-0.20,0.21,11.82,-0.20,NONE
206588,0,-29,-98,-348,1553,0,0,0,1,1.41,-5.58,-9.64,-0.16,0.20,-0.02,0.26,11.23,0.05,NONE
206792,0,-11,-96,-292,1557,0,0,0,1,0.24,-4.99,-9.52,0.09,-0.34,0.19,0.39,10.75,0.14,NONE
206996,0,69,-93,-291,1564,0,0,0,1,-0.03,-6.64,-5.29,1.81,-2.04,0.31,2.74,8.49,2.35,NONE
207200,0,137,-85,-381,1548,0,0,0,1,-1.24,-5.87,-8.28,0.31,0.23,0.27,0.47,10.23,-2.27,NONE
207404,0,151,-83,-423,1548,0,0,0,1,-0.23,-6.35,-8.64,-0.22,0.34,0.06,0.40,10.72,-0.06,NONE
207608,0,149,-80,-365,1557,0,0,0,1,0.75,-6.34,-9.93,-0.16,0.44,-0.12,0.48,11.80,0.07,NONE
207812,0,162,-75,-334,1569,0,0,0,1,0.63,-6.32,-8.60,0.02,-0.03,-0.10,0.11,10.69,-0.37,NONE
208016,0,169,-64,-305,1578,0,0,0,1,0.69,-6.50,-8.80,-0.05,0.06,-0.01,0.08,10.96,-0.02,NONE
208220,0,169,-64,-278,1584,0,0,0,1,0.76,-6.53,-8.88,-0.02,0.12,-0.05,0.13,11.05,0.04,NONE
208424,0,156,-64,-252,1590,0,0,0,1,1.05,-6.17,-8.89,-0.23,0.13,-0.11,0.29,10.87,0.16,NONE
208628,0,112,-55,-220,1594,0,0,0,1,1.26,-6.47,-9.00,0.06,-0.31,-0.03,0.32,11.16,0.03,NONE
208832,0,64,-57,-200,1597,0,0,0,1,0.48,-6.34,-9.18,-0.03,-0.01,-0.05,0.06,11.17,-0.26,NONE
209036,0,26,-61,-182,1602,0,0,0,1,0.63,-6.15,-9.22,0.02,0.10,-0.00,0.10,11.10,0.05,NONE
209240,0,-2,-64,-172,1605,0,0,0,1,0.99,-6.39,-9.20,0.07,0.01,0.01,0.07,11.25,-0.03,NONE
209444,0,-21,-65,-166,1606,0,0,0,1,0.78,-6.38,-9.07,0.06,0.04,0.02,0.07,11.12,0.00,NONE
209648,0,-35,-61,-163,1610,0,0,0,1,0.71,-6.42,-8.76,0.13,0.04,0.02,0.14,10.88,0.07,NONE
209852,0,-44,22,-165,1610,0,0,0,1,0.51,-6.90,-8.89,0.28,0.01,0.05,0.28,11.26,0.14,NONE
210056,0,-49,153,-162,1603,0,0,0,1,0.44,-7.22,-8.36,0.25,-0.17,0.01,0.31,11.05,0.03,NONE
210260,0,-50,265,-159,1591,0,0,0,1,0.44,-7.38,-7.89,-0.04,0.03,-0.05,0.07,10.81,-0.24,NONE
210464,0,-53,352,-154,1584,0,0,0,1,0.51,-7.20,-8.06,-0.06,0.06,-0.05,0.10,10.82,0.03,NONE
210668,0,-56,406,-137,1582,0,0,0,1,0.59,-7.43,-7.94,-0.16,-0.32,-0.10,0.37,10.89,0.28,NONE
210872,0,-59,415,-106,1587,0,0,0,1,0.61,-6.25,-7.28,-0.50,0.15,-0.53,0.74,9.62,0.37,NONE
211076,0,-64,303,-57,1596,0,0,0,1,0.66,-7.09,-8.43,0.06,0.04,-0.10,0.12,11.03,-0.62,NONE
211280,0,-65,214,-19,1596,0,0,0,1,0.38,-7.36,-8.44,0.25,-0.36,0.41,0.60,11.20,0.48,NONE
211484,0,-65,145,8,1591,0,0,0,1,-0.12,-7.24,-8.05,0.04,-0.11,0.02,0.11,10.83,-0.49,NONE
211688,0,-65,96,28,1562,0,0,0,1,-0.20,-7.49,-8.32,0.28,-0.20,0.23,0.41,11.20,0.30,NONE
211892,0,-67,72,-4,1386,0,0,0,1,-0.97,-7.88,-7.12,0.20,-0.24,0.15,0.34,10.67,-0.07,NONE
212096,0,-66,67,-58,1203,0,0,0,1,-1.28,-8.09,-7.03,-0.13,-0.02,-0.06,0.14,10.80,-0.20,NONE
212300,0,-67,66,-102,1055,0,0,0,1,-1.13,-7.92,-7.36,-0.11,0.00,-0.02,0.11,10.87,-0.03,NONE
212504,0,-67,65,-131,960,0,0,0,1,-0.83,-7.94,-7.18,-0.09,0.02,-0.06,0.11,10.73,-0.01,NONE
212708,0,-66,61,-144,904,0,0,0,1,-0.98,-7.70,-7.32,-0.08,0.08,-0.04,0.12,10.67,0.01,NONE
212912,0,-72,30,-81,1079,0,0,0,1,0.39,-7.07,-8.84,-0.19,-0.07,0.08,0.21,11.33,0.09,NONE
213116,0,-76,4,-47,1215,0,0,0,1,-0.61,-6.68,-8.83,-0.01,-0.00,-0.07,0.07,11.09,-0.14,NONE
213320,0,-76,-15,-145,1317,0,0,0,1,-0.71,-6.48,-8.75,-0.09,0.08,-0.01,0.13,10.91,0.06,NONE
213524,0,-61,-30,-349,1384,0,0,0,1,-0.70,-6.96,-8.09,0.61,-0.50,-0.09,0.80,10.69,0.67,NONE
213728,0,-41,-43,-508,1435,0,0,0,1,-1.61,-7.19,-7.00,0.32,-0.45,0.27,0.61,10.17,-0.19,NONE
213932,0,-18,-53,-622,1474,0,0,0,1,-1.72,-7.80,-7.31,0.03,0.03,0.00,0.05,10.83,-0.56,NONE
214136,0,1,-62,-705,1501,0,0,0,1,-1.98,-7.78,-7.12,-0.04,0.01,-0.04,0.05,10.73,0.01,NONE
214340,0,16,-69,-765,1518,0,0,0,1,-2.01,-7.87,-6.99,0.01,0.02,-0.03,0.04,10.72,-0.01,NONE
214544,0,29,-75,-808,1527,0,0,0,1,-1.87,-8.07,-7.15,-0.03,-0.03,0.12,0.13,10.95,0.09,NONE
214748,0,17,-77,-726,1542,0,0,0,1,-0.75,-7.56,-8.83,-0.62,0.25,0.11,0.68,11.65,0.55,NONE
214952,0,-3,-81,-539,1557,0,0,0,1,-1.08,-6.68,-9.37,-0.28,0.09,-0.02,0.29,11.55,-0.39,NONE
215156,0,-11,-79,-398,1568,0,0,0,1,-1.00,-6.47,-9.25,-0.03,0.09,-0.04,0.10,11.33,-0.19,NONE
215360,0,58,-76,-423,1577,0,0,0,1,-1.98,-6.36,-8.76,0.03,0.08,-0.10,0.13,11.00,0.03,NONE
215564,0,137,-72,-519,1507,0,0,0,1,-0.85,-6.55,-8.53,-0.07,0.04,-0.07,0.10,10.78,-0.03,NONE
215768,0,191,-71,-582,1431,0,0,0,1,-1.13,-5.91,-8.74,-0.13,-0.00,-0.03,0.13,10.61,0.02,NONE
215972,0,230,-70,-628,1373,0,0,0,1,-0.87,-6.23,-8.67,-0.06,-0.00,-0.07,0.09,10.71,-0.04,NONE
216176,0,259,-69,-658,1332,0,0,0,1,-0.62,-6.20,-9.18,0.08,-0.52,0.20,0.56,11.09,0.47,NONE
216380,0,254,-67,-638,1351,0,0,0,1,-1.38,-6.03,-8.43,-0.18,0.12,-0.38,0.44,10.45,-0.12,NONE
216584,0,183,-66,-466,1412,0,0,0,1,-0.28,-5.38,-8.33,-0.14,0.40,-0.18,0.46,9.92,0.02,NONE
216788,0,133,-60,-338,1459,0,0,0,1,-0.34,-6.46,-8.68,0.10,0.23,-0.11,0.28,10.83,-0.19,NONE
216992,0,105,-47,-255,1491,0,0,0,1,0.65,-7.23,-9.00,-0.02,0.08,-0.11,0.14,11.56,-0.14,NONE
217196,0,89,-34,-208,1511,0,0,0,1,1.45,-7.57,-8.33,0.04,0.21,-0.31,0.37,11.35,0.23,NONE
217400,0,78,-23,-180,1524,0,0,0,1,0.88,-6.92,-8.60,-0.01,0.04,-0.16,0.16,11.07,-0.21,NONE
217604,0,69,-17,-156,1533,0,0,0,1,1.45,-7.27,-7.91,0.05,0.03,-0.30,0.31,10.84,0.15,NONE
217808,0,60,-10,-137,1542,0,0,0,1,1.72,-7.35,-8.11,0.02,0.04,-0.04,0.06,11.08,-0.25,NONE
218012,0,52,-4,-126,1547,0,0,0,1,1.80,-7.05,-7.97,0.08,0.11,-0.16,0.21,10.79,0.14,NONE
218216,0,47,0,-120,1550,0,0,0,1,1.89,-7.33,-7.82,-0.04,-0.00,-0.02,0.05,10.88,-0.16,NONE
218420,0,43,6,-121,1550,0,0,0,1,2.22,-7.24,-8.07,0.02,-0.05,0.05,0.07,11.07,0.02,NONE
218624,0,44,14,-122,1551,0,0,0,1,1.79,-7.41,-8.09,0.01,-0.13,-0.05,0.14,11.12,0.07,NONE
218828,0,42,21,-124,1551,0,0,0,1,2.17,-7.32,-8.13,-0.08,0.01,0.06,0.10,11.15,-0.03,NONE
219032,0,40,27,-125,1550,0,0,0,1,2.26,-7.36,-8.07,0.04,-0.00,-0.13,0.14,11.16,0.03,NONE
219236,0,39,34,-129,1548,0,0,0,1,2.31,-7.20,-7.96,-0.08,0.04,-0.07,0.11,10.98,-0.03,NONE
219440,0,38,39,-131,1546,0,0,0,1,2.43,-7.11,-7.99,-0.07,-0.07,0.07,0.12,10.97,0.01,NONE
219644,0,40,44,-136,1543,0,0,0,1,1.98,-7.18,-7.89,-0.00,0.06,-0.05,0.07,10.85,-0.05,NONE
219848,0,38,45,-137,1543,0,0,0,1,2.28,-7.12,-8.23,-0.11,-0.03,0.11,0.16,11.12,0.09,NONE
220052,0,37,47,-137,1544,0,0,0,1,2.28,-7.57,-7.61,-0.00,0.03,-0.07,0.08,10.98,-0.08,NONE
220256,0,37,51,-142,1540,0,0,0,1,1.81,-7.24,-8.05,0.15,0.03,-0.06,0.16,10.97,0.08,NONE
220460,0,36,53,-143,1540,0,0,0,1,2.34,-7.12,-8.05,0.10,0.04,-0.07,0.13,11.00,-0.03,NONE
220664,0,36,54,-146,1539,0,0,0,1,2.37,-7.25,-7.72,-0.01,0.03,-0.04,0.05,10.85,-0.08,NONE
220868,0,37,57,-150,1539,0,0,0,1,2.35,-7.45,-7.78,0.03,-0.01,-0.03,0.05,11.02,-0.00,NONE
# REC=OFF
# CAL: starting (MID 5s, HIGH 5s, LOW 5s)
# CAL: Hold MID for 5s, then HIGH 5s, then LOW 5s.
# CAL,MID
# CAL,MID
# CAL,MID
# CAL,MID
# CAL,MID
# CAL,MID
# REC=ON
# REC=OFF
# CAL,MID
# CAL,MID
# CAL,MID
# CAL,MID
# CAL,MID
# CAL,MID
# REC=ON
# REC=OFF
# CAL,MID
# CAL,MID
# CAL,MID
# CAL,MID
# CAL,MID
# CAL,MID
# CAL,MID
# CAL,MID
# CAL,MID
# CAL,MID
# CAL,MID
# CAL: starting (MID 5s, HIGH 5s, LOW 5s)
# CAL: Hold MID for 5s, then HIGH 5s, then LOW 5s.
# CAL,MID
# REC=ON
# REC=OFF
# CAL,MID
# CAL,MID
# CAL,MID
# CAL,MID
# CAL,MID
# CAL,MID
# CAL,MID
# CAL,MID
# CAL,MID
# CAL,MID
# REC=ON
